accelX, accelY, accelZ, magX, magY, magZ, pressure, altitude, timestamp
27.300001, -783.900024, 585.000000, -13.500000, 400.500000, -558.000000, 970.855713, 358.191162, 109722
27.300001, -787.800049, 577.200012, -13.500000, 400.500000, -558.000000, 970.855713, 358.191162, 109733
31.200001, -791.700012, 585.000000, -13.500000, 400.500000, -558.000000, 970.986084, 359.029022, 109744
23.400002, -795.600037, 585.000000, -13.500000, 400.500000, -558.000000, 970.986084, 359.029022, 109755
23.400002, -795.600037, 588.900024, -13.500000, 400.500000, -558.000000, 970.986084, 359.029022, 109766
23.400002, -787.800049, 577.200012, -13.500000, 400.500000, -558.000000, 970.986084, 359.029022, 109777
35.100002, -791.700012, 592.799988, -13.500000, 400.500000, -558.000000, 970.986084, 359.029022, 109788
35.100002, -791.700012, 585.000000, -13.500000, 400.500000, -558.000000, 970.794678, 358.058990, 109799
23.400002, -799.500000, 596.700012, -13.500000, 400.500000, -558.000000, 970.794678, 358.058990, 109810
15.600000, -791.700012, 596.700012, -7.500000, 397.500000, -565.500000, 970.794678, 358.058990, 109821
31.200001, -791.700012, 600.600037, -7.500000, 397.500000, -565.500000, 970.794678, 358.058990, 109832
35.100002, -791.700012, 581.100037, -7.500000, 397.500000, -565.500000, 970.794678, 358.058990, 109843
23.400002, -791.700012, 577.200012, -7.500000, 397.500000, -565.500000, 970.794678, 358.058990, 109854
23.400002, -803.400024, 581.100037, -7.500000, 397.500000, -565.500000, 970.998779, 359.485474, 109865
31.200001, -795.600037, 596.700012, -7.500000, 397.500000, -565.500000, 970.998779, 359.485474, 109876
42.900002, -783.900024, 600.600037, -7.500000, 397.500000, -565.500000, 970.877441, 358.845856, 109887
31.200001, -791.700012, 596.700012, -7.500000, 397.500000, -565.500000, 970.877441, 358.845856, 109898
35.100002, -791.700012, 581.100037, -7.500000, 397.500000, -565.500000, 970.877441, 358.845856, 109909
23.400002, -780.000000, 596.700012, -7.500000, 397.500000, -565.500000, 970.818115, 359.356903, 109920
39.000000, -780.000000, 596.700012, 0.000000, 396.000000, -565.500000, 970.818115, 359.356903, 109931
31.200001, -791.700012, 585.000000, 0.000000, 396.000000, -565.500000, 970.857910, 359.013947, 109942
27.300001, -787.800049, 588.900024, 0.000000, 396.000000, -565.500000, 970.857910, 359.013947, 109953
27.300001, -787.800049, 592.799988, 0.000000, 396.000000, -565.500000, 970.881592, 358.809937, 109964
31.200001, -799.500000, 596.700012, 0.000000, 396.000000, -565.500000, 970.881592, 358.809937, 109975
23.400002, -791.700012, 581.100037, 0.000000, 396.000000, -565.500000, 970.881592, 358.809937, 109986
27.300001, -787.800049, 600.600037, 0.000000, 396.000000, -565.500000, 970.881592, 358.809937, 109997
39.000000, -791.700012, 592.799988, 0.000000, 396.000000, -565.500000, 970.881592, 358.809937, 110008
27.300001, -799.500000, 577.200012, -1.500000, 399.000000, -562.500000, 970.881592, 358.809937, 110019
31.200001, -795.600037, 585.000000, -1.500000, 399.000000, -562.500000, 970.950439, 359.468292, 110030
23.400002, -791.700012, 596.700012, -1.500000, 399.000000, -562.500000, 970.950439, 359.468292, 110041
31.200001, -787.800049, 588.900024, -1.500000, 399.000000, -562.500000, 970.950439, 359.468292, 110052
27.300001, -791.700012, 604.500000, -1.500000, 399.000000, -562.500000, 970.950439, 359.468292, 110063
23.400002, -787.800049, 577.200012, -1.500000, 399.000000, -562.500000, 970.950439, 359.468292, 110074
27.300001, -795.600037, 588.900024, -1.500000, 399.000000, -562.500000, 970.866455, 358.902039, 110085
15.600000, -799.500000, 600.600037, -1.500000, 399.000000, -562.500000, 970.866455, 358.902039, 110096
23.400002, -803.400024, 600.600037, -1.500000, 399.000000, -562.500000, 970.866455, 358.902039, 110107
23.400002, -787.800049, 596.700012, -7.500000, 397.500000, -556.500000, 970.930176, 358.391510, 110118
19.500000, -787.800049, 588.900024, -7.500000, 397.500000, -556.500000, 970.930176, 358.391510, 110129
35.100002, -795.600037, 600.600037, -7.500000, 397.500000, -556.500000, 970.879150, 359.525024, 110140
19.500000, -807.300049, 588.900024, -7.500000, 397.500000, -556.500000, 970.879150, 359.525024, 110151
35.100002, -791.700012, 596.700012, -7.500000, 397.500000, -556.500000, 970.815430, 359.379822, 110162
35.100002, -783.900024, 592.799988, -7.500000, 397.500000, -556.500000, 970.815430, 359.379822, 110173
27.300001, -780.000000, 569.400024, -7.500000, 397.500000, -556.500000, 970.815430, 359.379822, 110184
23.400002, -780.000000, 596.700012, -7.500000, 397.500000, -556.500000, 970.915283, 358.519012, 110195
19.500000, -795.600037, 604.500000, -7.500000, 397.500000, -556.500000, 970.915283, 358.519012, 110206
35.100002, -783.900024, 596.700012, -7.500000, 390.000000, -556.500000, 970.915283, 358.519012, 110217
39.000000, -795.600037, 600.600037, -7.500000, 390.000000, -556.500000, 970.915283, 358.519012, 110228
27.300001, -791.700012, 600.600037, -7.500000, 390.000000, -556.500000, 970.915283, 358.519012, 110239
23.400002, -795.600037, 577.200012, -7.500000, 390.000000, -556.500000, 970.916992, 358.355621, 110250
27.300001, -791.700012, 600.600037, -7.500000, 390.000000, -556.500000, 970.916992, 358.355621, 110261
27.300001, -787.800049, 581.100037, -7.500000, 390.000000, -556.500000, 970.916992, 358.355621, 110272
39.000000, -787.800049, 600.600037, -7.500000, 390.000000, -556.500000, 970.957275, 358.157867, 110283
23.400002, -787.800049, 588.900024, -7.500000, 390.000000, -556.500000, 970.957275, 358.157867, 110294
31.200001, -791.700012, 585.000000, -7.500000, 390.000000, -556.500000, 970.957275, 358.157867, 110305
35.100002, -783.900024, 596.700012, -4.500000, 399.000000, -564.000000, 970.832031, 359.236694, 110316
39.000000, -787.800049, 604.500000, -4.500000, 399.000000, -564.000000, 970.832031, 359.236694, 110327
35.100002, -787.800049, 592.799988, -4.500000, 399.000000, -564.000000, 970.906250, 358.597076, 110338
27.300001, -787.800049, 585.000000, -4.500000, 399.000000, -564.000000, 970.906250, 358.597076, 110349
15.600000, -787.800049, 585.000000, -4.500000, 399.000000, -564.000000, 970.927490, 358.414398, 110360
39.000000, -783.900024, 585.000000, -4.500000, 399.000000, -564.000000, 970.927490, 358.414398, 110371
19.500000, -787.800049, 600.600037, -4.500000, 399.000000, -564.000000, 970.927490, 358.414398, 110382
23.400002, -799.500000, 588.900024, -4.500000, 399.000000, -564.000000, 970.927490, 358.414398, 110393
31.200001, -783.900024, 600.600037, -1.500000, 396.000000, -565.500000, 970.927490, 358.414398, 110404
23.400002, -787.800049, 588.900024, -1.500000, 396.000000, -565.500000, 970.927490, 358.414398, 110415
27.300001, -787.800049, 585.000000, -1.500000, 396.000000, -565.500000, 970.825684, 358.635071, 110426
31.200001, -795.600037, 592.799988, -1.500000, 396.000000, -565.500000, 970.825684, 358.635071, 110437
31.200001, -795.600037, 585.000000, -1.500000, 396.000000, -565.500000, 970.825684, 358.635071, 110448
27.300001, -791.700012, 588.900024, -1.500000, 396.000000, -565.500000, 970.825684, 358.635071, 110459
31.200001, -783.900024, 585.000000, -1.500000, 396.000000, -565.500000, 970.825684, 358.635071, 110470
27.300001, -807.300049, 600.600037, -1.500000, 396.000000, -565.500000, 970.808105, 358.550751, 110481
15.600000, -795.600037, 592.799988, -1.500000, 396.000000, -565.500000, 970.808105, 358.550751, 110492
27.300001, -787.800049, 577.200012, -13.500000, 400.500000, -562.500000, 970.808105, 358.550751, 110503
27.300001, -787.800049, 596.700012, -13.500000, 400.500000, -562.500000, 970.808105, 358.550751, 110514
27.300001, -795.600037, 573.299988, -13.500000, 400.500000, -562.500000, 970.826416, 357.669739, 110525
23.400002, -791.700012, 577.200012, -13.500000, 400.500000, -562.500000, 970.826416, 357.669739, 110536
23.400002, -795.600037, 581.100037, -13.500000, 400.500000, -562.500000, 970.826416, 357.669739, 110547
19.500000, -791.700012, 588.900024, -13.500000, 400.500000, -562.500000, 970.837646, 359.188293, 110558
27.300001, -791.700012, 600.600037, -13.500000, 400.500000, -562.500000, 970.837646, 359.188293, 110569
23.400002, -787.800049, 592.799988, -13.500000, 400.500000, -562.500000, 970.920410, 358.475311, 110580
42.900002, -787.800049, 588.900024, -13.500000, 400.500000, -562.500000, 970.920410, 358.475311, 110591
27.300001, -791.700012, 592.799988, 1.500000, 402.000000, -562.500000, 970.920410, 358.475311, 110602
27.300001, -776.100037, 585.000000, 1.500000, 402.000000, -562.500000, 970.901123, 358.641846, 110613
31.200001, -799.500000, 581.100037, 1.500000, 402.000000, -562.500000, 970.901123, 358.641846, 110624
42.900002, -791.700012, 577.200012, 1.500000, 402.000000, -562.500000, 970.901123, 358.641846, 110635
35.100002, -787.800049, 596.700012, 1.500000, 402.000000, -562.500000, 970.901123, 358.641846, 110646
31.200001, -787.800049, 592.799988, 1.500000, 402.000000, -562.500000, 970.901123, 358.641846, 110657
35.100002, -791.700012, 581.100037, 1.500000, 402.000000, -562.500000, 970.850342, 358.679291, 110668
27.300001, -780.000000, 596.700012, 1.500000, 402.000000, -562.500000, 970.850342, 358.679291, 110679
35.100002, -795.600037, 581.100037, 1.500000, 402.000000, -562.500000, 970.850342, 358.679291, 110690
23.400002, -799.500000, 573.299988, -7.500000, 394.500000, -565.500000, 970.850342, 358.679291, 110701
23.400002, -791.700012, 581.100037, -7.500000, 394.500000, -565.500000, 970.850342, 358.679291, 110712
23.400002, -787.800049, 588.900024, -7.500000, 394.500000, -565.500000, 970.843506, 358.589264, 110723
23.400002, -795.600037, 588.900024, -7.500000, 394.500000, -565.500000, 970.843506, 358.589264, 110734
31.200001, -787.800049, 600.600037, -7.500000, 394.500000, -565.500000, 970.843506, 358.589264, 110745
23.400002, -776.100037, 600.600037, -7.500000, 394.500000, -565.500000, 970.843506, 358.589264, 110756
23.400002, -787.800049, 596.700012, -7.500000, 394.500000, -565.500000, 970.843506, 358.589264, 110767
31.200001, -787.800049, 596.700012, -7.500000, 394.500000, -565.500000, 970.843506, 358.589264, 110778
27.300001, -791.700012, 577.200012, -1.500000, 397.500000, -574.500000, 971.032471, 358.591339, 110789
31.200001, -780.000000, 596.700012, -1.500000, 397.500000, -574.500000, 971.032471, 358.591339, 110800
31.200001, -791.700012, 592.799988, -1.500000, 397.500000, -574.500000, 971.032471, 358.591339, 110811
42.900002, -799.500000, 596.700012, -1.500000, 397.500000, -574.500000, 971.032471, 358.591339, 110822
23.400002, -787.800049, 581.100037, -1.500000, 397.500000, -574.500000, 970.845703, 358.771423, 110833
39.000000, -780.000000, 596.700012, -1.500000, 397.500000, -574.500000, 970.845703, 358.771423, 110844
23.400002, -791.700012, 600.600037, -1.500000, 397.500000, -574.500000, 970.792480, 359.577606, 110855
27.300001, -791.700012, 585.000000, -1.500000, 397.500000, -574.500000, 970.792480, 359.577606, 110866
35.100002, -783.900024, 592.799988, -1.500000, 397.500000, -574.500000, 970.792480, 359.577606, 110877
31.200001, -791.700012, 596.700012, -1.500000, 397.500000, -574.500000, 970.847656, 359.102417, 110888
23.400002, -795.600037, 604.500000, -3.000000, 399.000000, -565.500000, 970.847656, 359.102417, 110899
27.300001, -783.900024, 588.900024, -3.000000, 399.000000, -565.500000, 970.906982, 358.591339, 110910
15.600000, -787.800049, 588.900024, -3.000000, 399.000000, -565.500000, 970.906982, 358.591339, 110921
23.400002, -795.600037, 577.200012, -3.000000, 399.000000, -565.500000, 970.906982, 358.591339, 110932
39.000000, -795.600037, 592.799988, -3.000000, 399.000000, -565.500000, 970.906982, 358.591339, 110943
35.100002, -787.800049, 581.100037, -3.000000, 399.000000, -565.500000, 970.906982, 358.591339, 110954
27.300001, -780.000000, 592.799988, -3.000000, 399.000000, -565.500000, 970.906982, 358.591339, 110965
31.200001, -799.500000, 596.700012, -3.000000, 399.000000, -565.500000, 970.875488, 359.291351, 110976
19.500000, -787.800049, 581.100037, -6.000000, 396.000000, -565.500000, 970.875488, 359.291351, 110987
31.200001, -780.000000, 585.000000, -6.000000, 396.000000, -565.500000, 970.875488, 359.291351, 110998
31.200001, -799.500000, 600.600037, -6.000000, 396.000000, -565.500000, 970.875488, 359.291351, 111009
35.100002, -783.900024, 596.700012, -6.000000, 396.000000, -565.500000, 970.875488, 359.291351, 111020
35.100002, -787.800049, 592.799988, -6.000000, 396.000000, -565.500000, 970.958252, 358.167755, 111031
27.300001, -799.500000, 596.700012, -6.000000, 396.000000, -565.500000, 970.958252, 358.167755, 111042
27.300001, -791.700012, 585.000000, -6.000000, 396.000000, -565.500000, 970.962402, 358.113098, 111053
31.200001, -783.900024, 577.200012, -6.000000, 396.000000, -565.500000, 970.962402, 358.113098, 111064
27.300001, -795.600037, 600.600037, -6.000000, 396.000000, -565.500000, 970.917969, 358.496124, 111075
27.300001, -791.700012, 592.799988, -6.000000, 396.000000, -565.500000, 970.917969, 358.496124, 111086
35.100002, -772.200012, 592.799988, -4.500000, 400.500000, -564.000000, 970.917969, 358.496124, 111097
23.400002, -795.600037, 596.700012, -4.500000, 400.500000, -564.000000, 970.943604, 358.275452, 111108
39.000000, -799.500000, 592.799988, -4.500000, 400.500000, -564.000000, 970.943604, 358.275452, 111119
27.300001, -795.600037, 592.799988, -4.500000, 400.500000, -564.000000, 970.909668, 358.567413, 111130
31.200001, -791.700012, 588.900024, -4.500000, 400.500000, -564.000000, 970.909668, 358.567413, 111141
19.500000, -795.600037, 585.000000, -4.500000, 400.500000, -564.000000, 970.909668, 358.567413, 111152
31.200001, -787.800049, 585.000000, -4.500000, 400.500000, -564.000000, 970.909668, 358.567413, 111163
31.200001, -803.400024, 604.500000, -4.500000, 400.500000, -564.000000, 970.909668, 358.567413, 111174
27.300001, -795.600037, 588.900024, -13.500000, 399.000000, -571.500000, 970.862793, 357.875793, 111185
35.100002, -791.700012, 592.799988, -13.500000, 399.000000, -571.500000, 970.862793, 357.875793, 111196
27.300001, -795.600037, 581.100037, -13.500000, 399.000000, -571.500000, 970.862793, 357.875793, 111207
23.400002, -791.700012, 596.700012, -13.500000, 399.000000, -571.500000, 970.862793, 357.875793, 111218
27.300001, -799.500000, 588.900024, -13.500000, 399.000000, -571.500000, 970.862793, 357.875793, 111229
31.200001, -791.700012, 596.700012, -13.500000, 399.000000, -571.500000, 970.922363, 358.458649, 111240
23.400002, -787.800049, 585.000000, -13.500000, 399.000000, -571.500000, 970.922363, 358.458649, 111251
23.400002, -795.600037, 588.900024, -13.500000, 399.000000, -571.500000, 970.996826, 357.817017, 111262
39.000000, -799.500000, 600.600037, -13.500000, 399.000000, -571.500000, 970.996826, 357.817017, 111273
35.100002, -783.900024, 596.700012, -12.000000, 397.500000, -556.500000, 970.996826, 357.817017, 111284
35.100002, -795.600037, 592.799988, -12.000000, 397.500000, -556.500000, 970.968994, 358.056885, 111295
31.200001, -787.800049, 592.799988, -12.000000, 397.500000, -556.500000, 970.968994, 358.056885, 111306
39.000000, -787.800049, 592.799988, -12.000000, 397.500000, -556.500000, 970.899170, 358.658478, 111317
39.000000, -791.700012, 585.000000, -12.000000, 397.500000, -556.500000, 970.899170, 358.658478, 111328
35.100002, -791.700012, 585.000000, -12.000000, 397.500000, -556.500000, 970.899170, 358.658478, 111339
31.200001, -791.700012, 588.900024, -12.000000, 397.500000, -556.500000, 970.899170, 358.658478, 111350
23.400002, -787.800049, 577.200012, -12.000000, 397.500000, -556.500000, 970.899170, 358.658478, 111361
31.200001, -787.800049, 581.100037, -3.000000, 396.000000, -564.000000, 970.899170, 358.658478, 111372
31.200001, -803.400024, 581.100037, -3.000000, 396.000000, -564.000000, 970.922607, 359.300201, 111383
31.200001, -791.700012, 581.100037, -3.000000, 396.000000, -564.000000, 970.922607, 359.300201, 111394
27.300001, -799.500000, 608.400024, -3.000000, 396.000000, -564.000000, 970.922607, 359.300201, 111405
19.500000, -780.000000, 592.799988, -3.000000, 396.000000, -564.000000, 970.922607, 359.300201, 111416
23.400002, -791.700012, 592.799988, -3.000000, 396.000000, -564.000000, 970.922607, 359.300201, 111427
19.500000, -791.700012, 588.900024, -3.000000, 396.000000, -564.000000, 970.899170, 358.363922, 111438
27.300001, -799.500000, 577.200012, -3.000000, 396.000000, -564.000000, 970.899170, 358.363922, 111449
27.300001, -795.600037, 592.799988, -3.000000, 396.000000, -564.000000, 970.899170, 358.363922, 111460
23.400002, -795.600037, 585.000000, -10.500000, 399.000000, -564.000000, 970.899170, 358.363922, 111471
19.500000, -795.600037, 600.600037, -10.500000, 399.000000, -564.000000, 970.899414, 358.656403, 111482
39.000000, -780.000000, 585.000000, -10.500000, 399.000000, -564.000000, 970.899414, 358.656403, 111493
27.300001, -791.700012, 592.799988, -10.500000, 399.000000, -564.000000, 970.903564, 358.619965, 111504
35.100002, -787.800049, 588.900024, -10.500000, 399.000000, -564.000000, 970.903564, 358.619965, 111515
23.400002, -799.500000, 585.000000, -10.500000, 399.000000, -564.000000, 970.903564, 358.619965, 111526
27.300001, -780.000000, 588.900024, -10.500000, 399.000000, -564.000000, 970.912109, 358.546600, 111537
31.200001, -787.800049, 585.000000, -10.500000, 399.000000, -564.000000, 970.912109, 358.546600, 111548
35.100002, -799.500000, 588.900024, -10.500000, 399.000000, -564.000000, 970.818604, 359.352753, 111559
42.900002, -783.900024, 585.000000, -10.500000, 399.000000, -564.000000, 970.818604, 359.352753, 111570
31.200001, -795.600037, 592.799988, -10.500000, 409.500000, -568.500000, 970.818604, 359.352753, 111581
31.200001, -791.700012, 600.600037, -10.500000, 409.500000, -568.500000, 970.818604, 359.352753, 111592
27.300001, -795.600037, 585.000000, -10.500000, 409.500000, -568.500000, 970.818604, 359.352753, 111603
23.400002, -791.700012, 588.900024, -10.500000, 409.500000, -568.500000, 970.818604, 359.352753, 111614
27.300001, -780.000000, 585.000000, -10.500000, 409.500000, -568.500000, 970.963135, 359.388153, 111625
27.300001, -776.100037, 592.799988, -10.500000, 409.500000, -568.500000, 970.963135, 359.388153, 111636
27.300001, -783.900024, 588.900024, -10.500000, 409.500000, -568.500000, 970.963135, 359.388153, 111647
31.200001, -787.800049, 600.600037, -10.500000, 409.500000, -568.500000, 970.963135, 359.388153, 111658
23.400002, -783.900024, 592.799988, -4.500000, 396.000000, -564.000000, 970.963135, 359.388153, 111669
31.200001, -783.900024, 585.000000, -4.500000, 396.000000, -564.000000, 970.974121, 358.917145, 111680
27.300001, -791.700012, 592.799988, -4.500000, 396.000000, -564.000000, 970.974121, 358.917145, 111691
15.600000, -791.700012, 585.000000, -4.500000, 396.000000, -564.000000, 970.974121, 358.917145, 111702
27.300001, -783.900024, 588.900024, -4.500000, 396.000000, -564.000000, 970.974121, 358.917145, 111713
31.200001, -791.700012, 581.100037, -4.500000, 396.000000, -564.000000, 970.974121, 358.917145, 111724
27.300001, -791.700012, 585.000000, -4.500000, 396.000000, -564.000000, 970.906006, 358.563782, 111735
31.200001, -787.800049, 596.700012, -4.500000, 396.000000, -564.000000, 970.906006, 358.563782, 111746
15.600000, -791.700012, 588.900024, -4.500000, 396.000000, -564.000000, 970.906006, 358.563782, 111757
27.300001, -783.900024, 596.700012, -12.000000, 400.500000, -567.000000, 970.906006, 358.563782, 111768
31.200001, -787.800049, 585.000000, -12.000000, 400.500000, -567.000000, 970.906006, 358.563782, 111779
27.300001, -795.600037, 585.000000, -12.000000, 400.500000, -567.000000, 970.929688, 358.892151, 111790
23.400002, -791.700012, 596.700012, -12.000000, 400.500000, -567.000000, 970.929688, 358.892151, 111801
35.100002, -795.600037, 596.700012, -12.000000, 400.500000, -567.000000, 970.908203, 358.580414, 111812
31.200001, -799.500000, 596.700012, -12.000000, 400.500000, -567.000000, 970.908203, 358.580414, 111823
27.300001, -787.800049, 600.600037, -12.000000, 400.500000, -567.000000, 970.848633, 359.094086, 111834
27.300001, -795.600037, 581.100037, -12.000000, 400.500000, -567.000000, 970.848633, 359.094086, 111845
31.200001, -783.900024, 585.000000, -12.000000, 400.500000, -567.000000, 970.848633, 359.094086, 111856
23.400002, -795.600037, 596.700012, -1.500000, 399.000000, -567.000000, 970.872314, 358.889557, 111867
31.200001, -795.600037, 588.900024, -1.500000, 399.000000, -567.000000, 970.872314, 358.889557, 111878
23.400002, -780.000000, 596.700012, -1.500000, 399.000000, -567.000000, 970.872314, 358.889557, 111889
31.200001, -799.500000, 592.799988, -1.500000, 399.000000, -567.000000, 970.872314, 358.889557, 111900
31.200001, -791.700012, 569.400024, -1.500000, 399.000000, -567.000000, 970.872314, 358.889557, 111911
31.200001, -811.200012, 585.000000, -1.500000, 399.000000, -567.000000, 970.844727, 358.048065, 111922
35.100002, -787.800049, 588.900024, -1.500000, 399.000000, -567.000000, 970.844727, 358.048065, 111933
23.400002, -768.300049, 596.700012, -1.500000, 399.000000, -567.000000, 970.844727, 358.048065, 111944
35.100002, -795.600037, 581.100037, -1.500000, 390.000000, -565.500000, 970.844727, 358.048065, 111955
23.400002, -791.700012, 581.100037, -1.500000, 390.000000, -565.500000, 970.844727, 358.048065, 111966
27.300001, -772.200012, 585.000000, -1.500000, 390.000000, -565.500000, 970.940186, 358.094360, 111977
39.000000, -783.900024, 585.000000, -1.500000, 390.000000, -565.500000, 970.940186, 358.094360, 111988
15.600000, -776.100037, 596.700012, -1.500000, 390.000000, -565.500000, 970.940186, 358.094360, 111999
31.200001, -791.700012, 588.900024, -1.500000, 390.000000, -565.500000, 970.940186, 358.094360, 112010
23.400002, -780.000000, 585.000000, -1.500000, 390.000000, -565.500000, 970.940186, 358.094360, 112021
35.100002, -803.400024, 596.700012, -1.500000, 390.000000, -565.500000, 970.940186, 358.094360, 112032
23.400002, -795.600037, 596.700012, -1.500000, 390.000000, -565.500000, 970.863770, 357.755585, 112043
31.200001, -787.800049, 581.100037, -16.500000, 400.500000, -555.000000, 970.863770, 357.755585, 112054
35.100002, -783.900024, 581.100037, -16.500000, 400.500000, -555.000000, 970.863770, 357.755585, 112065
23.400002, -795.600037, 588.900024, -16.500000, 400.500000, -555.000000, 970.863770, 357.755585, 112076
23.400002, -799.500000, 592.799988, -16.500000, 400.500000, -555.000000, 970.822754, 358.778198, 112087
23.400002, -803.400024, 588.900024, -16.500000, 400.500000, -555.000000, 970.822754, 358.778198, 112098
23.400002, -791.700012, 577.200012, -16.500000, 400.500000, -555.000000, 970.972168, 358.029327, 112109
23.400002, -787.800049, 585.000000, -16.500000, 400.500000, -555.000000, 970.972168, 358.029327, 112120
31.200001, -783.900024, 585.000000, -16.500000, 400.500000, -555.000000, 970.972168, 358.029327, 112131
23.400002, -783.900024, 585.000000, -16.500000, 400.500000, -555.000000, 970.936035, 358.341034, 112142
19.500000, -799.500000, 577.200012, -16.500000, 400.500000, -555.000000, 970.936035, 358.341034, 112153
39.000000, -799.500000, 585.000000, -15.000000, 402.000000, -571.500000, 970.868408, 358.922852, 112164
42.900002, -803.400024, 592.799988, -15.000000, 402.000000, -571.500000, 970.868408, 358.922852, 112175
31.200001, -783.900024, 592.799988, -15.000000, 402.000000, -571.500000, 970.868408, 358.922852, 112186
35.100002, -791.700012, 588.900024, -15.000000, 402.000000, -571.500000, 970.868408, 358.922852, 112197
27.300001, -780.000000, 577.200012, -15.000000, 402.000000, -571.500000, 970.868408, 358.922852, 112208
31.200001, -791.700012, 592.799988, -15.000000, 402.000000, -571.500000, 970.868408, 358.922852, 112219
23.400002, -799.500000, 581.100037, -15.000000, 402.000000, -571.500000, 970.914795, 358.578339, 112230
31.200001, -799.500000, 585.000000, -15.000000, 402.000000, -571.500000, 970.914795, 358.578339, 112241
23.400002, -780.000000, 592.799988, -6.000000, 396.000000, -570.000000, 970.914795, 358.578339, 112252
19.500000, -803.400024, 600.600037, -6.000000, 396.000000, -570.000000, 970.914795, 358.578339, 112263
35.100002, -783.900024, 596.700012, -6.000000, 396.000000, -570.000000, 970.914795, 358.578339, 112274
23.400002, -795.600037, 588.900024, -6.000000, 396.000000, -570.000000, 971.008545, 358.647552, 112285
27.300001, -783.900024, 577.200012, -6.000000, 396.000000, -570.000000, 971.008545, 358.647552, 112296
27.300001, -787.800049, 573.299988, -6.000000, 396.000000, -570.000000, 970.883057, 358.797455, 112307
31.200001, -803.400024, 592.799988, -6.000000, 396.000000, -570.000000, 970.883057, 358.797455, 112318
27.300001, -791.700012, 588.900024, -6.000000, 396.000000, -570.000000, 970.883057, 358.797455, 112329
31.200001, -799.500000, 596.700012, -6.000000, 396.000000, -570.000000, 970.855469, 359.034760, 112340
35.100002, -787.800049, 581.100037, -10.500000, 402.000000, -559.500000, 970.855469, 359.034760, 112351
23.400002, -791.700012, 585.000000, -10.500000, 402.000000, -559.500000, 970.923340, 358.449799, 112362
35.100002, -791.700012, 573.299988, -10.500000, 402.000000, -559.500000, 970.923340, 358.449799, 112373
27.300001, -780.000000, 596.700012, -10.500000, 402.000000, -559.500000, 970.923340, 358.449799, 112384
27.300001, -780.000000, 604.500000, -10.500000, 402.000000, -559.500000, 970.882813, 358.799011, 112395
19.500000, -803.400024, 592.799988, -10.500000, 402.000000, -559.500000, 970.882813, 358.799011, 112406
27.300001, -795.600037, 592.799988, -10.500000, 402.000000, -559.500000, 970.882813, 358.799011, 112417
23.400002, -799.500000, 588.900024, -10.500000, 402.000000, -559.500000, 970.882813, 358.799011, 112428
27.300001, -795.600037, 608.400024, -12.000000, 399.000000, -567.000000, 970.882813, 358.799011, 112439
27.300001, -795.600037, 592.799988, -12.000000, 399.000000, -567.000000, 970.942383, 357.995483, 112450
31.200001, -787.800049, 592.799988, -12.000000, 399.000000, -567.000000, 970.942383, 357.995483, 112461
23.400002, -791.700012, 592.799988, -12.000000, 399.000000, -567.000000, 970.942383, 357.995483, 112472
27.300001, -799.500000, 600.600037, -12.000000, 399.000000, -567.000000, 970.942383, 357.995483, 112483
31.200001, -795.600037, 585.000000, -12.000000, 399.000000, -567.000000, 970.874268, 358.485718, 112494
27.300001, -780.000000, 573.299988, -12.000000, 399.000000, -567.000000, 970.874268, 358.485718, 112505
27.300001, -799.500000, 588.900024, -12.000000, 399.000000, -567.000000, 970.874268, 358.485718, 112516
35.100002, -780.000000, 592.799988, -12.000000, 399.000000, -567.000000, 970.904541, 358.612183, 112527
35.100002, -780.000000, 596.700012, -12.000000, 399.000000, -567.000000, 970.904541, 358.612183, 112538
35.100002, -795.600037, 596.700012, -12.000000, 393.000000, -570.000000, 970.846924, 359.108154, 112549
39.000000, -795.600037, 600.600037, -12.000000, 393.000000, -570.000000, 970.846924, 359.108154, 112560
19.500000, -787.800049, 588.900024, -12.000000, 393.000000, -570.000000, 970.951416, 358.208344, 112571
31.200001, -795.600037, 588.900024, -12.000000, 393.000000, -570.000000, 970.951416, 358.208344, 112582
27.300001, -799.500000, 600.600037, -12.000000, 393.000000, -570.000000, 970.951416, 358.208344, 112593
31.200001, -791.700012, 577.200012, -12.000000, 393.000000, -570.000000, 970.951416, 358.208344, 112604
19.500000, -795.600037, 596.700012, -12.000000, 393.000000, -570.000000, 970.951416, 358.208344, 112615
19.500000, -787.800049, 592.799988, -12.000000, 393.000000, -570.000000, 970.951416, 358.208344, 112626
19.500000, -791.700012, 608.400024, -4.500000, 396.000000, -558.000000, 970.829102, 358.851563, 112637
31.200001, -787.800049, 592.799988, -4.500000, 396.000000, -558.000000, 970.829102, 358.851563, 112648
27.300001, -783.900024, 577.200012, -4.500000, 396.000000, -558.000000, 970.829102, 358.851563, 112659
35.100002, -799.500000, 581.100037, -4.500000, 396.000000, -558.000000, 970.829102, 358.851563, 112670
31.200001, -791.700012, 596.700012, -4.500000, 396.000000, -558.000000, 970.829102, 358.851563, 112681
42.900002, -787.800049, 588.900024, -4.500000, 396.000000, -558.000000, 970.893555, 358.100616, 112692
27.300001, -791.700012, 596.700012, -4.500000, 396.000000, -558.000000, 970.893555, 358.100616, 112703
31.200001, -799.500000, 588.900024, -4.500000, 396.000000, -558.000000, 970.893555, 358.100616, 112714
23.400002, -795.600037, 588.900024, -4.500000, 396.000000, -558.000000, 970.893555, 358.100616, 112725
23.400002, -791.700012, 585.000000, -12.000000, 397.500000, -568.500000, 970.911865, 359.087311, 112736
39.000000, -795.600037, 596.700012, -12.000000, 397.500000, -568.500000, 970.911865, 359.087311, 112747
31.200001, -776.100037, 600.600037, -12.000000, 397.500000, -568.500000, 970.911865, 359.087311, 112758
31.200001, -799.500000, 585.000000, -12.000000, 397.500000, -568.500000, 970.965820, 358.084473, 112769
27.300001, -795.600037, 592.799988, -12.000000, 397.500000, -568.500000, 970.965820, 358.084473, 112780
27.300001, -787.800049, 581.100037, -12.000000, 397.500000, -568.500000, 970.923340, 358.449799, 112791
39.000000, -787.800049, 596.700012, -12.000000, 397.500000, -568.500000, 970.923340, 358.449799, 112802
35.100002, -791.700012, 585.000000, -12.000000, 397.500000, -568.500000, 970.825684, 359.291351, 112813
39.000000, -787.800049, 585.000000, -12.000000, 397.500000, -568.500000, 970.825684, 359.291351, 112824
31.200001, -791.700012, 581.100037, -1.500000, 396.000000, -564.000000, 970.825684, 359.291351, 112835
27.300001, -799.500000, 588.900024, -1.500000, 396.000000, -564.000000, 970.825684, 359.291351, 112846
27.300001, -791.700012, 592.799988, -1.500000, 396.000000, -564.000000, 970.825684, 359.291351, 112857
46.800003, -799.500000, 577.200012, -1.500000, 396.000000, -564.000000, 970.825684, 359.291351, 112868
31.200001, -799.500000, 600.600037, -1.500000, 396.000000, -564.000000, 970.865967, 358.286407, 112879
35.100002, -772.200012, 604.500000, -1.500000, 396.000000, -564.000000, 970.865967, 358.286407, 112890
27.300001, -795.600037, 592.799988, -1.500000, 396.000000, -564.000000, 970.865967, 358.286407, 112901
31.200001, -787.800049, 581.100037, -1.500000, 396.000000, -564.000000, 970.865967, 358.286407, 112912
31.200001, -791.700012, 596.700012, 6.000000, 402.000000, -558.000000, 970.865967, 358.286407, 112923
23.400002, -795.600037, 600.600037, 6.000000, 402.000000, -558.000000, 970.955322, 358.414398, 112934
39.000000, -799.500000, 573.299988, 6.000000, 402.000000, -558.000000, 970.955322, 358.414398, 112945
31.200001, -791.700012, 592.799988, 6.000000, 402.000000, -558.000000, 970.955322, 358.414398, 112956
35.100002, -787.800049, 596.700012, 6.000000, 402.000000, -558.000000, 970.874512, 358.870819, 112967
39.000000, -795.600037, 585.000000, 6.000000, 402.000000, -558.000000, 970.874512, 358.870819, 112978
39.000000, -787.800049, 581.100037, 6.000000, 402.000000, -558.000000, 971.046387, 357.389771, 112989
31.200001, -799.500000, 588.900024, 6.000000, 402.000000, -558.000000, 971.046387, 357.389771, 113000
31.200001, -787.800049, 600.600037, 6.000000, 402.000000, -558.000000, 970.983154, 357.935120, 113011
35.100002, -780.000000, 596.700012, 6.000000, 402.000000, -558.000000, 970.983154, 357.935120, 113022
42.900002, -799.500000, 592.799988, -7.500000, 399.000000, -571.500000, 970.983154, 357.935120, 113033
39.000000, -787.800049, 592.799988, -7.500000, 399.000000, -571.500000, 970.989258, 357.882568, 113044
23.400002, -795.600037, 588.900024, -7.500000, 399.000000, -571.500000, 970.989258, 357.882568, 113055
31.200001, -803.400024, 585.000000, -7.500000, 399.000000, -571.500000, 970.989258, 357.882568, 113066
23.400002, -795.600037, 581.100037, -7.500000, 399.000000, -571.500000, 970.989258, 357.882568, 113077
27.300001, -787.800049, 585.000000, -7.500000, 399.000000, -571.500000, 970.989258, 357.882568, 113088
35.100002, -783.900024, 596.700012, -7.500000, 399.000000, -571.500000, 970.914795, 359.182556, 113099
27.300001, -799.500000, 588.900024, -7.500000, 399.000000, -571.500000, 970.914795, 359.182556, 113110
35.100002, -783.900024, 585.000000, -12.000000, 396.000000, -562.500000, 970.914795, 359.182556, 113121
31.200001, -783.900024, 588.900024, -12.000000, 396.000000, -562.500000, 970.914795, 359.182556, 113132
23.400002, -791.700012, 569.400024, -12.000000, 396.000000, -562.500000, 970.942871, 358.157867, 113143
39.000000, -780.000000, 581.100037, -12.000000, 396.000000, -562.500000, 970.942871, 358.157867, 113154
27.300001, -787.800049, 592.799988, -12.000000, 396.000000, -562.500000, 970.942871, 358.157867, 113165
35.100002, -791.700012, 596.700012, -12.000000, 396.000000, -562.500000, 970.946777, 358.247894, 113176
31.200001, -791.700012, 585.000000, -12.000000, 396.000000, -562.500000, 970.946777, 358.247894, 113187
23.400002, -799.500000, 581.100037, -12.000000, 396.000000, -562.500000, 970.825439, 359.293427, 113198
39.000000, -787.800049, 596.700012, -12.000000, 396.000000, -562.500000, 970.825439, 359.293427, 113209
31.200001, -803.400024, 592.799988, -12.000000, 396.000000, -562.500000, 970.867920, 358.928070, 113220
27.300001, -791.700012, 577.200012, -16.500000, 400.500000, -570.000000, 970.867920, 358.928070, 113231
35.100002, -795.600037, 577.200012, -16.500000, 400.500000, -570.000000, 970.867920, 358.928070, 113242
27.300001, -776.100037, 585.000000, -16.500000, 400.500000, -570.000000, 970.867920, 358.928070, 113253
23.400002, -791.700012, 592.799988, -16.500000, 400.500000, -570.000000, 970.867920, 358.928070, 113264
23.400002, -791.700012, 588.900024, -16.500000, 400.500000, -570.000000, 970.867920, 358.928070, 113275
35.100002, -787.800049, 600.600037, -16.500000, 400.500000, -570.000000, 970.867188, 358.414398, 113286
23.400002, -795.600037, 577.200012, -16.500000, 400.500000, -570.000000, 970.867188, 358.414398, 113297
23.400002, -787.800049, 577.200012, -16.500000, 400.500000, -570.000000, 970.867188, 358.414398, 113308
35.100002, -783.900024, 596.700012, 1.500000, 391.500000, -565.500000, 970.867188, 358.414398, 113319
35.100002, -795.600037, 596.700012, 1.500000, 391.500000, -565.500000, 970.867188, 358.414398, 113330
31.200001, -799.500000, 585.000000, 1.500000, 391.500000, -565.500000, 970.893799, 357.475647, 113341
23.400002, -783.900024, 581.100037, 1.500000, 391.500000, -565.500000, 970.893799, 357.475647, 113352
39.000000, -787.800049, 596.700012, 1.500000, 391.500000, -565.500000, 970.893799, 357.475647, 113363
27.300001, -791.700012, 573.299988, 1.500000, 391.500000, -565.500000, 970.893799, 357.475647, 113374
27.300001, -795.600037, 596.700012, 1.500000, 391.500000, -565.500000, 970.972900, 358.561676, 113385
23.400002, -791.700012, 585.000000, 1.500000, 391.500000, -565.500000, 970.972900, 358.561676, 113396
31.200001, -791.700012, 592.799988, 1.500000, 391.500000, -565.500000, 970.972900, 358.561676, 113407
35.100002, -791.700012, 585.000000, -6.000000, 396.000000, -565.500000, 970.912354, 358.544525, 113418
23.400002, -783.900024, 585.000000, -6.000000, 396.000000, -565.500000, 970.912354, 358.544525, 113429
15.600000, -787.800049, 585.000000, -6.000000, 396.000000, -565.500000, 970.975830, 357.997589, 113440
15.600000, -783.900024, 588.900024, -6.000000, 396.000000, -565.500000, 970.975830, 357.997589, 113451
31.200001, -776.100037, 588.900024, -6.000000, 396.000000, -565.500000, 970.922852, 358.454498, 113462
27.300001, -787.800049, 581.100037, -6.000000, 396.000000, -565.500000, 970.922852, 358.454498, 113473
23.400002, -795.600037, 585.000000, -6.000000, 396.000000, -565.500000, 970.922852, 358.454498, 113484
27.300001, -791.700012, 588.900024, -6.000000, 396.000000, -565.500000, 970.922852, 358.454498, 113495
27.300001, -780.000000, 585.000000, -9.000000, 402.000000, -567.000000, 970.922852, 358.454498, 113506
27.300001, -783.900024, 592.799988, -9.000000, 402.000000, -567.000000, 970.922852, 358.454498, 113517
23.400002, -787.800049, 600.600037, -9.000000, 402.000000, -567.000000, 970.950195, 358.088135, 113528
19.500000, -787.800049, 608.400024, -9.000000, 402.000000, -567.000000, 970.950195, 358.088135, 113539
19.500000, -795.600037, 581.100037, -9.000000, 402.000000, -567.000000, 970.950195, 358.088135, 113550
39.000000, -803.400024, 588.900024, -9.000000, 402.000000, -567.000000, 970.950195, 358.088135, 113561
31.200001, -795.600037, 588.900024, -9.000000, 402.000000, -567.000000, 970.950195, 358.088135, 113572
19.500000, -791.700012, 600.600037, -9.000000, 402.000000, -567.000000, 970.986572, 358.384735, 113583
31.200001, -780.000000, 581.100037, -9.000000, 402.000000, -567.000000, 970.986572, 358.384735, 113594
27.300001, -791.700012, 592.799988, -9.000000, 402.000000, -567.000000, 970.986572, 358.384735, 113605
35.100002, -783.900024, 588.900024, -7.500000, 403.500000, -559.500000, 970.986572, 358.384735, 113616
27.300001, -787.800049, 588.900024, -7.500000, 403.500000, -559.500000, 970.986572, 358.384735, 113627
15.600000, -776.100037, 596.700012, -7.500000, 403.500000, -559.500000, 970.986572, 358.384735, 113638
31.200001, -787.800049, 581.100037, -7.500000, 403.500000, -559.500000, 970.880127, 359.098267, 113649
23.400002, -791.700012, 600.600037, -7.500000, 403.500000, -559.500000, 970.880127, 359.098267, 113660
31.200001, -783.900024, 592.799988, -7.500000, 403.500000, -559.500000, 970.880127, 359.098267, 113671
31.200001, -787.800049, 588.900024, -7.500000, 403.500000, -559.500000, 970.880127, 359.098267, 113682
31.200001, -795.600037, 581.100037, -7.500000, 403.500000, -559.500000, 970.949951, 358.220825, 113693
35.100002, -791.700012, 585.000000, -7.500000, 403.500000, -559.500000, 970.949951, 358.220825, 113704
27.300001, -783.900024, 596.700012, -12.000000, 394.500000, -568.500000, 971.077393, 357.122314, 113715
27.300001, -795.600037, 612.299988, -12.000000, 394.500000, -568.500000, 971.077393, 357.122314, 113726
35.100002, -787.800049, 600.600037, -12.000000, 394.500000, -568.500000, 970.905273, 358.605408, 113737
35.100002, -787.800049, 585.000000, -12.000000, 394.500000, -568.500000, 970.905273, 358.605408, 113748
31.200001, -791.700012, 573.299988, -12.000000, 394.500000, -568.500000, 970.905273, 358.605408, 113759
39.000000, -795.600037, 600.600037, -12.000000, 394.500000, -568.500000, 971.024170, 357.581268, 113770
27.300001, -795.600037, 592.799988, -12.000000, 394.500000, -568.500000, 971.024170, 357.581268, 113781
42.900002, -787.800049, 588.900024, -12.000000, 394.500000, -568.500000, 971.024170, 357.581268, 113792
35.100002, -787.800049, 573.299988, 1.500000, 399.000000, -565.500000, 971.024170, 357.581268, 113803
35.100002, -783.900024, 581.100037, 1.500000, 399.000000, -565.500000, 971.024170, 357.581268, 113814
23.400002, -791.700012, 577.200012, 1.500000, 399.000000, -565.500000, 970.947510, 358.075623, 113825
19.500000, -795.600037, 596.700012, 1.500000, 399.000000, -565.500000, 970.947510, 358.075623, 113836
39.000000, -791.700012, 612.299988, 1.500000, 399.000000, -565.500000, 970.947510, 358.075623, 113847
35.100002, -783.900024, 596.700012, 1.500000, 399.000000, -565.500000, 970.947510, 358.075623, 113858
50.700001, -772.200012, 585.000000, 1.500000, 399.000000, -565.500000, 970.947510, 358.075623, 113869
27.300001, -791.700012, 581.100037, 1.500000, 399.000000, -565.500000, 970.947510, 358.075623, 113880
27.300001, -787.800049, 577.200012, 1.500000, 399.000000, -565.500000, 970.930176, 358.153687, 113891
31.200001, -799.500000, 565.500000, -16.500000, 402.000000, -555.000000, 970.930176, 358.153687, 113902
31.200001, -787.800049, 585.000000, -16.500000, 402.000000, -555.000000, 970.930176, 358.153687, 113913
23.400002, -787.800049, 596.700012, -16.500000, 402.000000, -555.000000, 970.930176, 358.153687, 113924
27.300001, -791.700012, 604.500000, -16.500000, 402.000000, -555.000000, 970.930176, 358.153687, 113935
23.400002, -791.700012, 604.500000, -16.500000, 402.000000, -555.000000, 970.998291, 358.483643, 113946
35.100002, -795.600037, 600.600037, -16.500000, 402.000000, -555.000000, 970.998291, 358.483643, 113957
31.200001, -787.800049, 581.100037, -16.500000, 402.000000, -555.000000, 970.998291, 358.483643, 113968
23.400002, -799.500000, 573.299988, -16.500000, 402.000000, -555.000000, 970.998291, 358.483643, 113979
39.000000, -787.800049, 585.000000, -16.500000, 402.000000, -555.000000, 971.012939, 358.410248, 113990
23.400002, -803.400024, 592.799988, -4.500000, 400.500000, -570.000000, 971.012939, 358.410248, 114001
27.300001, -780.000000, 596.700012, -4.500000, 400.500000, -570.000000, 971.012939, 358.410248, 114012
31.200001, -776.100037, 596.700012, -4.500000, 400.500000, -570.000000, 970.916748, 358.507050, 114023
39.000000, -791.700012, 596.700012, -4.500000, 400.500000, -570.000000, 970.916748, 358.507050, 114034
27.300001, -795.600037, 585.000000, -4.500000, 400.500000, -570.000000, 970.904297, 358.614258, 114045
27.300001, -791.700012, 592.799988, -4.500000, 400.500000, -570.000000, 970.904297, 358.614258, 114056
35.100002, -795.600037, 581.100037, -4.500000, 400.500000, -570.000000, 970.959229, 358.140686, 114067
35.100002, -803.400024, 573.299988, -4.500000, 400.500000, -570.000000, 970.959229, 358.140686, 114078
35.100002, -795.600037, 573.299988, -4.500000, 400.500000, -570.000000, 970.959229, 358.140686, 114089
31.200001, -795.600037, 585.000000, 1.500000, 396.000000, -555.000000, 970.959229, 358.140686, 114100
35.100002, -791.700012, 612.299988, 1.500000, 396.000000, -555.000000, 970.959229, 358.140686, 114111
39.000000, -795.600037, 588.900024, 1.500000, 396.000000, -555.000000, 970.959229, 358.140686, 114122
35.100002, -780.000000, 592.799988, 1.500000, 396.000000, -555.000000, 970.891357, 358.481537, 114133
23.400002, -795.600037, 588.900024, 1.500000, 396.000000, -555.000000, 970.891357, 358.481537, 114144
23.400002, -799.500000, 585.000000, 1.500000, 396.000000, -555.000000, 970.891357, 358.481537, 114155
35.100002, -787.800049, 577.200012, 1.500000, 396.000000, -555.000000, 970.891357, 358.481537, 114166
27.300001, -795.600037, 577.200012, 1.500000, 396.000000, -555.000000, 970.891357, 358.481537, 114177
35.100002, -783.900024, 585.000000, -7.500000, 402.000000, -568.500000, 970.948486, 357.968445, 114188
31.200001, -795.600037, 577.200012, -7.500000, 402.000000, -568.500000, 970.948486, 357.968445, 114199
35.100002, -791.700012, 588.900024, -7.500000, 402.000000, -568.500000, 970.948486, 357.968445, 114210
23.400002, -783.900024, 604.500000, -7.500000, 402.000000, -568.500000, 970.948486, 357.968445, 114221
27.300001, -787.800049, 588.900024, -7.500000, 402.000000, -568.500000, 970.954834, 358.928070, 114232
35.100002, -783.900024, 596.700012, -7.500000, 402.000000, -568.500000, 970.954834, 358.928070, 114243
27.300001, -787.800049, 592.799988, -7.500000, 402.000000, -568.500000, 970.899658, 358.653809, 114254
27.300001, -799.500000, 588.900024, -7.500000, 402.000000, -568.500000, 970.899658, 358.653809, 114265
27.300001, -791.700012, 569.400024, -7.500000, 402.000000, -568.500000, 971.007813, 357.722290, 114276
27.300001, -803.400024, 585.000000, -7.500000, 402.000000, -568.500000, 971.007813, 357.722290, 114287
27.300001, -791.700012, 592.799988, -9.000000, 394.500000, -552.000000, 971.007813, 357.722290, 114298
31.200001, -783.900024, 596.700012, -9.000000, 394.500000, -552.000000, 971.035156, 357.602081, 114309
27.300001, -787.800049, 581.100037, -9.000000, 394.500000, -552.000000, 971.035156, 357.602081, 114320
31.200001, -795.600037, 592.799988, -9.000000, 394.500000, -552.000000, 971.035156, 357.602081, 114331
23.400002, -799.500000, 588.900024, -9.000000, 394.500000, -552.000000, 971.035156, 357.602081, 114342
27.300001, -795.600037, 604.500000, -9.000000, 394.500000, -552.000000, 971.035156, 357.602081, 114353
23.400002, -791.700012, 592.799988, -9.000000, 394.500000, -552.000000, 970.963135, 357.290924, 114364
39.000000, -799.500000, 573.299988, -9.000000, 394.500000, -552.000000, 970.963135, 357.290924, 114375
27.300001, -795.600037, 577.200012, -7.500000, 388.500000, -567.000000, 970.963135, 357.290924, 114386
19.500000, -783.900024, 585.000000, -7.500000, 388.500000, -567.000000, 970.963135, 357.290924, 114397
39.000000, -787.800049, 596.700012, -7.500000, 388.500000, -567.000000, 970.963135, 357.290924, 114408
35.100002, -807.300049, 600.600037, -7.500000, 388.500000, -567.000000, 970.963135, 357.290924, 114419
27.300001, -783.900024, 604.500000, -7.500000, 388.500000, -567.000000, 970.879395, 358.319702, 114430
27.300001, -776.100037, 588.900024, -7.500000, 388.500000, -567.000000, 970.879395, 358.319702, 114441
31.200001, -783.900024, 588.900024, -7.500000, 388.500000, -567.000000, 970.962891, 358.109467, 114452
27.300001, -795.600037, 588.900024, -7.500000, 388.500000, -567.000000, 970.962891, 358.109467, 114463
23.400002, -780.000000, 592.799988, -7.500000, 388.500000, -567.000000, 970.962891, 358.109467, 114474
23.400002, -799.500000, 592.799988, -4.500000, 399.000000, -570.000000, 970.907715, 358.584595, 114485
23.400002, -803.400024, 581.100037, -4.500000, 399.000000, -570.000000, 970.907715, 358.584595, 114496
31.200001, -795.600037, 592.799988, -4.500000, 399.000000, -570.000000, 970.835449, 359.207031, 114507
42.900002, -795.600037, 600.600037, -4.500000, 399.000000, -570.000000, 970.835449, 359.207031, 114518
27.300001, -795.600037, 588.900024, -4.500000, 399.000000, -570.000000, 970.916016, 358.513306, 114529
31.200001, -783.900024, 596.700012, -4.500000, 399.000000, -570.000000, 970.916016, 358.513306, 114540
35.100002, -780.000000, 585.000000, -4.500000, 399.000000, -570.000000, 970.916016, 358.513306, 114551
27.300001, -795.600037, 581.100037, -4.500000, 399.000000, -570.000000, 970.916016, 358.513306, 114562
19.500000, -783.900024, 573.299988, -4.500000, 399.000000, -570.000000, 970.916016, 358.513306, 114573
15.600000, -799.500000, 588.900024, 0.000000, 405.000000, -565.500000, 970.939209, 358.330109, 114584
35.100002, -795.600037, 588.900024, 0.000000, 405.000000, -565.500000, 970.939209, 358.330109, 114595
23.400002, -787.800049, 592.799988, 0.000000, 405.000000, -565.500000, 970.939209, 358.330109, 114606
23.400002, -787.800049, 592.799988, 0.000000, 405.000000, -565.500000, 970.939209, 358.330109, 114617
27.300001, -783.900024, 585.000000, 0.000000, 405.000000, -565.500000, 970.939209, 358.330109, 114628
27.300001, -791.700012, 608.400024, 0.000000, 405.000000, -565.500000, 970.833008, 359.228882, 114639
27.300001, -799.500000, 612.299988, 0.000000, 405.000000, -565.500000, 970.833008, 359.228882, 114650
23.400002, -783.900024, 592.799988, 0.000000, 405.000000, -565.500000, 970.970703, 358.041809, 114661
35.100002, -795.600037, 577.200012, 0.000000, 405.000000, -565.500000, 970.970703, 358.041809, 114672
23.400002, -803.400024, 577.200012, -10.500000, 402.000000, -570.000000, 970.970703, 358.041809, 114683
35.100002, -795.600037, 585.000000, -10.500000, 402.000000, -570.000000, 970.951904, 358.204163, 114694
27.300001, -787.800049, 596.700012, -10.500000, 402.000000, -570.000000, 970.951904, 358.204163, 114705
27.300001, -803.400024, 604.500000, -10.500000, 402.000000, -570.000000, 970.945557, 358.258820, 114716
23.400002, -791.700012, 604.500000, -10.500000, 402.000000, -570.000000, 970.945557, 358.258820, 114727
15.600000, -799.500000, 581.100037, -10.500000, 402.000000, -570.000000, 970.945557, 358.258820, 114738
19.500000, -791.700012, 585.000000, -10.500000, 402.000000, -570.000000, 970.945557, 358.258820, 114749
35.100002, -799.500000, 604.500000, -10.500000, 402.000000, -570.000000, 970.945557, 358.258820, 114760
27.300001, -783.900024, 569.400024, -3.000000, 397.500000, -565.500000, 970.860352, 359.230957, 114771
27.300001, -795.600037, 585.000000, -3.000000, 397.500000, -565.500000, 970.860352, 359.230957, 114782
23.400002, -787.800049, 573.299988, -3.000000, 397.500000, -565.500000, 970.860352, 359.230957, 114793
27.300001, -776.100037, 604.500000, -3.000000, 397.500000, -565.500000, 970.860352, 359.230957, 114804
31.200001, -787.800049, 581.100037, -3.000000, 397.500000, -565.500000, 970.860352, 359.230957, 114815
42.900002, -787.800049, 592.799988, -3.000000, 397.500000, -565.500000, 970.947266, 358.170349, 114826
42.900002, -787.800049, 588.900024, -3.000000, 397.500000, -565.500000, 970.947266, 358.170349, 114837
27.300001, -791.700012, 585.000000, -3.000000, 397.500000, -565.500000, 970.947266, 358.170349, 114848
27.300001, -787.800049, 588.900024, -3.000000, 397.500000, -565.500000, 970.947266, 358.170349, 114859
39.000000, -795.600037, 596.700012, -15.000000, 396.000000, -565.500000, 970.947266, 358.170349, 114870
35.100002, -795.600037, 581.100037, -15.000000, 396.000000, -565.500000, 970.993896, 358.757355, 114881
27.300001, -791.700012, 577.200012, -15.000000, 396.000000, -565.500000, 970.993896, 358.757355, 114892
27.300001, -787.800049, 577.200012, -15.000000, 396.000000, -565.500000, 970.993896, 358.757355, 114903
27.300001, -795.600037, 588.900024, -15.000000, 396.000000, -565.500000, 970.968018, 358.064697, 114914
19.500000, -795.600037, 588.900024, -15.000000, 396.000000, -565.500000, 970.968018, 358.064697, 114925
27.300001, -795.600037, 588.900024, -15.000000, 396.000000, -565.500000, 970.940918, 358.298370, 114936
31.200001, -799.500000, 588.900024, -15.000000, 396.000000, -565.500000, 970.940918, 358.298370, 114947
31.200001, -780.000000, 592.799988, -15.000000, 396.000000, -565.500000, 970.910645, 358.559601, 114958
23.400002, -799.500000, 604.500000, -15.000000, 396.000000, -565.500000, 970.910645, 358.559601, 114969
35.100002, -787.800049, 588.900024, -9.000000, 387.000000, -558.000000, 970.910645, 358.559601, 114980
27.300001, -799.500000, 581.100037, -9.000000, 387.000000, -558.000000, 970.910645, 358.559601, 114991
23.400002, -791.700012, 585.000000, -9.000000, 387.000000, -558.000000, 970.910645, 358.559601, 115002
31.200001, -787.800049, 573.299988, -9.000000, 387.000000, -558.000000, 970.910645, 358.559601, 115013
35.100002, -799.500000, 585.000000, -9.000000, 387.000000, -558.000000, 970.802490, 358.853638, 115024
31.200001, -787.800049, 585.000000, -9.000000, 387.000000, -558.000000, 970.802490, 358.853638, 115035
31.200001, -787.800049, 585.000000, -9.000000, 387.000000, -558.000000, 970.802490, 358.853638, 115046
31.200001, -787.800049, 592.799988, -9.000000, 387.000000, -558.000000, 970.802490, 358.853638, 115057
27.300001, -787.800049, 592.799988, 9.000000, 396.000000, -556.500000, 970.802490, 358.853638, 115068
31.200001, -791.700012, 581.100037, 9.000000, 396.000000, -556.500000, 970.951660, 358.617889, 115079
23.400002, -791.700012, 592.799988, 9.000000, 396.000000, -556.500000, 970.951660, 358.617889, 115090
27.300001, -799.500000, 585.000000, 9.000000, 396.000000, -556.500000, 970.951660, 358.617889, 115101
39.000000, -783.900024, 585.000000, 9.000000, 396.000000, -556.500000, 970.954834, 358.178680, 115112
27.300001, -791.700012, 592.799988, 9.000000, 396.000000, -556.500000, 970.954834, 358.178680, 115123
31.200001, -787.800049, 581.100037, 9.000000, 396.000000, -556.500000, 970.942139, 358.288483, 115134
27.300001, -791.700012, 581.100037, 9.000000, 396.000000, -556.500000, 970.942139, 358.288483, 115145
31.200001, -780.000000, 581.100037, 9.000000, 396.000000, -556.500000, 970.942139, 358.288483, 115156
31.200001, -780.000000, 577.200012, -10.500000, 396.000000, -559.500000, 970.920898, 358.470612, 115167
27.300001, -787.800049, 581.100037, -10.500000, 396.000000, -559.500000, 970.920898, 358.470612, 115178
27.300001, -795.600037, 592.799988, -10.500000, 396.000000, -559.500000, 970.837891, 359.186218, 115189
39.000000, -795.600037, 592.799988, -10.500000, 396.000000, -559.500000, 970.837891, 359.186218, 115200
27.300001, -799.500000, 592.799988, -10.500000, 396.000000, -559.500000, 970.837891, 359.186218, 115211
27.300001, -799.500000, 588.900024, -10.500000, 396.000000, -559.500000, 970.837891, 359.186218, 115222
27.300001, -799.500000, 588.900024, -10.500000, 396.000000, -559.500000, 970.837891, 359.186218, 115233
19.500000, -799.500000, 592.799988, -10.500000, 396.000000, -559.500000, 970.920654, 357.741028, 115244
31.200001, -791.700012, 585.000000, -7.500000, 402.000000, -567.000000, 970.920654, 357.741028, 115255
23.400002, -795.600037, 588.900024, -7.500000, 402.000000, -567.000000, 970.920654, 357.741028, 115266
23.400002, -799.500000, 588.900024, -7.500000, 402.000000, -567.000000, 970.920654, 357.741028, 115277
31.200001, -783.900024, 585.000000, -7.500000, 402.000000, -567.000000, 970.897217, 358.675140, 115288
27.300001, -783.900024, 592.799988, -7.500000, 402.000000, -567.000000, 970.897217, 358.675140, 115299
31.200001, -787.800049, 585.000000, -7.500000, 402.000000, -567.000000, 970.897217, 358.675140, 115310
31.200001, -783.900024, 581.100037, -7.500000, 402.000000, -567.000000, 970.867432, 358.931702, 115321
39.000000, -795.600037, 588.900024, -7.500000, 402.000000, -567.000000, 970.867432, 358.931702, 115332
27.300001, -803.400024, 588.900024, -7.500000, 402.000000, -567.000000, 970.861084, 358.986359, 115343
39.000000, -791.700012, 585.000000, -7.500000, 402.000000, -567.000000, 970.861084, 358.986359, 115354
35.100002, -791.700012, 581.100037, -10.500000, 394.500000, -559.500000, 970.861084, 358.986359, 115365
27.300001, -787.800049, 581.100037, -10.500000, 394.500000, -559.500000, 970.875977, 358.858337, 115376
27.300001, -795.600037, 592.799988, -10.500000, 394.500000, -559.500000, 970.875977, 358.858337, 115387
23.400002, -795.600037, 577.200012, -10.500000, 394.500000, -559.500000, 970.875977, 358.858337, 115398
35.100002, -787.800049, 588.900024, -10.500000, 394.500000, -559.500000, 970.875977, 358.858337, 115409
23.400002, -783.900024, 581.100037, -10.500000, 394.500000, -559.500000, 970.875977, 358.858337, 115420
27.300001, -799.500000, 588.900024, -10.500000, 394.500000, -559.500000, 970.982178, 358.821899, 115431
27.300001, -780.000000, 588.900024, -10.500000, 394.500000, -559.500000, 970.982178, 358.821899, 115442
23.400002, -799.500000, 604.500000, -1.500000, 402.000000, -567.000000, 970.982178, 358.821899, 115453
31.200001, -787.800049, 592.799988, -1.500000, 402.000000, -567.000000, 970.982178, 358.821899, 115464
27.300001, -791.700012, 585.000000, -1.500000, 402.000000, -567.000000, 970.982178, 358.821899, 115475
39.000000, -795.600037, 581.100037, -1.500000, 402.000000, -567.000000, 970.829102, 357.797760, 115486
39.000000, -791.700012, 596.700012, -1.500000, 402.000000, -567.000000, 970.829102, 357.797760, 115497
31.200001, -795.600037, 577.200012, -1.500000, 402.000000, -567.000000, 970.829102, 357.797760, 115508
31.200001, -791.700012, 588.900024, -1.500000, 402.000000, -567.000000, 970.829102, 357.797760, 115519
39.000000, -783.900024, 600.600037, -1.500000, 402.000000, -567.000000, 970.901123, 358.733948, 115530
35.100002, -791.700012, 585.000000, -1.500000, 402.000000, -567.000000, 970.901123, 358.733948, 115541
27.300001, -787.800049, 592.799988, -18.000000, 399.000000, -568.500000, 970.901123, 358.733948, 115552
19.500000, -795.600037, 585.000000, -18.000000, 399.000000, -568.500000, 970.986084, 357.909119, 115563
27.300001, -783.900024, 588.900024, -18.000000, 399.000000, -568.500000, 970.986084, 357.909119, 115574
35.100002, -795.600037, 596.700012, -18.000000, 399.000000, -568.500000, 970.824463, 359.302277, 115585
31.200001, -795.600037, 585.000000, -18.000000, 399.000000, -568.500000, 970.824463, 359.302277, 115596
27.300001, -791.700012, 581.100037, -18.000000, 399.000000, -568.500000, 970.924072, 358.443542, 115607
27.300001, -787.800049, 592.799988, -18.000000, 399.000000, -568.500000, 970.924072, 358.443542, 115618
39.000000, -795.600037, 596.700012, -18.000000, 399.000000, -568.500000, 970.924072, 358.443542, 115629
23.400002, -799.500000, 585.000000, -18.000000, 399.000000, -568.500000, 970.924072, 358.443542, 115640
35.100002, -791.700012, 592.799988, -18.000000, 400.500000, -567.000000, 970.924072, 358.443542, 115651
27.300001, -791.700012, 585.000000, -18.000000, 400.500000, -567.000000, 970.924072, 358.443542, 115662
31.200001, -783.900024, 573.299988, -18.000000, 400.500000, -567.000000, 971.000732, 358.132355, 115673
35.100002, -807.300049, 585.000000, -18.000000, 400.500000, -567.000000, 971.000732, 358.132355, 115684
19.500000, -795.600037, 581.100037, -18.000000, 400.500000, -567.000000, 971.000732, 358.132355, 115695
31.200001, -811.200012, 581.100037, -18.000000, 400.500000, -567.000000, 971.000732, 358.132355, 115706
27.300001, -799.500000, 588.900024, -18.000000, 400.500000, -567.000000, 971.000732, 358.132355, 115717
31.200001, -795.600037, 600.600037, -18.000000, 400.500000, -567.000000, 970.885742, 358.626740, 115728
35.100002, -799.500000, 581.100037, -18.000000, 400.500000, -567.000000, 970.885742, 358.626740, 115739
15.600000, -783.900024, 588.900024, -3.000000, 397.500000, -573.000000, 970.885742, 358.626740, 115750
19.500000, -803.400024, 585.000000, -3.000000, 397.500000, -573.000000, 970.885742, 358.626740, 115761
31.200001, -799.500000, 569.400024, -3.000000, 397.500000, -573.000000, 970.885742, 358.626740, 115772
23.400002, -803.400024, 585.000000, -3.000000, 397.500000, -573.000000, 970.898438, 358.700134, 115783
27.300001, -776.100037, 569.400024, -3.000000, 397.500000, -573.000000, 970.898438, 358.700134, 115794
42.900002, -791.700012, 581.100037, -3.000000, 397.500000, -573.000000, 970.898438, 358.700134, 115805
39.000000, -795.600037, 588.900024, -3.000000, 397.500000, -573.000000, 970.898438, 358.700134, 115816
31.200001, -791.700012, 588.900024, -3.000000, 397.500000, -573.000000, 970.898438, 358.700134, 115827
31.200001, -783.900024, 581.100037, -12.000000, 402.000000, -571.500000, 970.945068, 358.189087, 115838
23.400002, -803.400024, 588.900024, -12.000000, 402.000000, -571.500000, 970.945068, 358.189087, 115849
35.100002, -803.400024, 581.100037, -12.000000, 402.000000, -571.500000, 970.804932, 359.470367, 115860
19.500000, -776.100037, 592.799988, -12.000000, 402.000000, -571.500000, 970.804932, 359.470367, 115871
35.100002, -803.400024, 588.900024, -12.000000, 402.000000, -571.500000, 970.804932, 359.470367, 115882
23.400002, -807.300049, 588.900024, -12.000000, 402.000000, -571.500000, 970.868408, 358.922852, 115893
31.200001, -799.500000, 604.500000, -12.000000, 402.000000, -571.500000, 970.868408, 358.922852, 115904
35.100002, -803.400024, 588.900024, -12.000000, 402.000000, -571.500000, 970.804688, 359.472473, 115915
27.300001, -791.700012, 581.100037, -12.000000, 402.000000, -571.500000, 970.804688, 359.472473, 115926
15.600000, -787.800049, 577.200012, -12.000000, 402.000000, -571.500000, 970.804688, 359.472473, 115937
31.200001, -787.800049, 573.299988, -4.500000, 391.500000, -564.000000, 970.804688, 359.472473, 115948
31.200001, -799.500000, 585.000000, -4.500000, 391.500000, -564.000000, 970.804688, 359.472473, 115959
27.300001, -791.700012, 577.200012, -4.500000, 391.500000, -564.000000, 970.804688, 359.472473, 115970
42.900002, -799.500000, 585.000000, -4.500000, 391.500000, -564.000000, 970.868164, 358.980103, 115981
42.900002, -787.800049, 588.900024, -4.500000, 391.500000, -564.000000, 970.868164, 358.980103, 115992
27.300001, -799.500000, 592.799988, -4.500000, 391.500000, -564.000000, 970.868164, 358.980103, 116003
19.500000, -795.600037, 581.100037, -4.500000, 391.500000, -564.000000, 970.868164, 358.980103, 116014
23.400002, -783.900024, 588.900024, -4.500000, 391.500000, -564.000000, 970.868164, 358.980103, 116025
31.200001, -803.400024, 588.900024, -6.000000, 393.000000, -556.500000, 970.910889, 359.419891, 116036
46.800003, -787.800049, 592.799988, -6.000000, 393.000000, -556.500000, 970.910889, 359.419891, 116047
39.000000, -787.800049, 577.200012, -6.000000, 393.000000, -556.500000, 970.910889, 359.419891, 116058
31.200001, -799.500000, 588.900024, -6.000000, 393.000000, -556.500000, 970.910889, 359.419891, 116069
27.300001, -799.500000, 585.000000, -6.000000, 393.000000, -556.500000, 970.863525, 358.965546, 116080
23.400002, -787.800049, 592.799988, -6.000000, 393.000000, -556.500000, 970.863525, 358.965546, 116091
27.300001, -791.700012, 588.900024, -6.000000, 393.000000, -556.500000, 970.914551, 358.525787, 116102
31.200001, -799.500000, 585.000000, -6.000000, 393.000000, -556.500000, 970.914551, 358.525787, 116113
31.200001, -795.600037, 596.700012, -6.000000, 393.000000, -556.500000, 970.840332, 359.165405, 116124
31.200001, -791.700012, 581.100037, -9.000000, 387.000000, -568.500000, 970.840332, 359.165405, 116135
23.400002, -791.700012, 588.900024, -9.000000, 387.000000, -568.500000, 970.840332, 359.165405, 116146
27.300001, -780.000000, 581.100037, -9.000000, 387.000000, -568.500000, 970.787109, 359.623901, 116157
39.000000, -791.700012, 581.100037, -9.000000, 387.000000, -568.500000, 970.787109, 359.623901, 116168
31.200001, -783.900024, 569.400024, -9.000000, 387.000000, -568.500000, 970.787109, 359.623901, 116179
27.300001, -791.700012, 588.900024, -9.000000, 387.000000, -568.500000, 970.787109, 359.623901, 116190
23.400002, -799.500000, 585.000000, -9.000000, 387.000000, -568.500000, 970.787109, 359.623901, 116201
39.000000, -799.500000, 577.200012, -9.000000, 387.000000, -568.500000, 970.884766, 358.727692, 116212
31.200001, -791.700012, 592.799988, -9.000000, 387.000000, -568.500000, 970.884766, 358.727692, 116223
27.300001, -799.500000, 585.000000, -10.500000, 387.000000, -570.000000, 970.884766, 358.727692, 116234
35.100002, -783.900024, 573.299988, -10.500000, 387.000000, -570.000000, 970.884766, 358.727692, 116245
27.300001, -795.600037, 585.000000, -10.500000, 387.000000, -570.000000, 970.884766, 358.727692, 116256
35.100002, -795.600037, 585.000000, -10.500000, 387.000000, -570.000000, 970.822998, 358.584595, 116267
27.300001, -787.800049, 581.100037, -10.500000, 387.000000, -570.000000, 970.822998, 358.584595, 116278
23.400002, -791.700012, 588.900024, -10.500000, 387.000000, -570.000000, 970.822998, 358.584595, 116289
35.100002, -787.800049, 596.700012, -10.500000, 387.000000, -570.000000, 970.967285, 358.071472, 116300
27.300001, -787.800049, 600.600037, -10.500000, 387.000000, -570.000000, 970.967285, 358.071472, 116311
35.100002, -787.800049, 585.000000, -10.500000, 387.000000, -570.000000, 970.865479, 359.057648, 116322
31.200001, -795.600037, 588.900024, -3.000000, 402.000000, -564.000000, 970.865479, 359.057648, 116333
23.400002, -791.700012, 596.700012, -3.000000, 402.000000, -564.000000, 970.869629, 358.912964, 116344
31.200001, -787.800049, 585.000000, -3.000000, 402.000000, -564.000000, 970.869629, 358.912964, 116355
23.400002, -783.900024, 585.000000, -3.000000, 402.000000, -564.000000, 970.869629, 358.912964, 116366
27.300001, -787.800049, 585.000000, -3.000000, 402.000000, -564.000000, 970.854492, 359.043091, 116377
23.400002, -795.600037, 573.299988, -3.000000, 402.000000, -564.000000, 970.854492, 359.043091, 116388
27.300001, -780.000000, 592.799988, -3.000000, 402.000000, -564.000000, 970.854492, 359.043091, 116399
23.400002, -795.600037, 581.100037, -3.000000, 402.000000, -564.000000, 970.854492, 359.043091, 116410
19.500000, -780.000000, 573.299988, -10.500000, 400.500000, -571.500000, 970.854492, 359.043091, 116421
27.300001, -791.700012, 573.299988, -10.500000, 400.500000, -571.500000, 970.913818, 358.769867, 116432
27.300001, -776.100037, 600.600037, -10.500000, 400.500000, -571.500000, 970.913818, 358.769867, 116443
39.000000, -795.600037, 581.100037, -10.500000, 400.500000, -571.500000, 970.913818, 358.769867, 116454
39.000000, -795.600037, 596.700012, -10.500000, 400.500000, -571.500000, 970.913818, 358.769867, 116465
27.300001, -791.700012, 561.600037, -10.500000, 400.500000, -571.500000, 970.913818, 358.769867, 116476
27.300001, -783.900024, 573.299988, -10.500000, 400.500000, -571.500000, 970.833252, 359.611420, 116487
23.400002, -791.700012, 581.100037, -10.500000, 400.500000, -571.500000, 970.833252, 359.611420, 116498
31.200001, -795.600037, 592.799988, -10.500000, 400.500000, -571.500000, 970.877686, 358.843750, 116509
31.200001, -795.600037, 588.900024, -10.500000, 400.500000, -571.500000, 970.877686, 358.843750, 116520
39.000000, -783.900024, 581.100037, -12.000000, 408.000000, -561.000000, 970.792725, 359.575500, 116531
31.200001, -795.600037, 577.200012, -12.000000, 408.000000, -561.000000, 970.792725, 359.575500, 116542
35.100002, -791.700012, 585.000000, -12.000000, 408.000000, -561.000000, 970.792725, 359.575500, 116553
27.300001, -791.700012, 585.000000, -12.000000, 408.000000, -561.000000, 970.796875, 359.539612, 116564
27.300001, -795.600037, 600.600037, -12.000000, 408.000000, -561.000000, 970.796875, 359.539612, 116575
27.300001, -791.700012, 592.799988, -12.000000, 408.000000, -561.000000, 970.796875, 359.539612, 116586
35.100002, -795.600037, 585.000000, -12.000000, 408.000000, -561.000000, 970.796875, 359.539612, 116597
27.300001, -783.900024, 588.900024, -12.000000, 408.000000, -561.000000, 970.796875, 359.539612, 116608
27.300001, -795.600037, 592.799988, -3.000000, 393.000000, -567.000000, 970.822510, 359.281464, 116619
27.300001, -799.500000, 585.000000, -3.000000, 393.000000, -567.000000, 970.822510, 359.281464, 116630
35.100002, -791.700012, 588.900024, -3.000000, 393.000000, -567.000000, 970.822510, 359.281464, 116641
23.400002, -795.600037, 581.100037, -3.000000, 393.000000, -567.000000, 970.822510, 359.281464, 116652
27.300001, -795.600037, 592.799988, -3.000000, 393.000000, -567.000000, 970.822510, 359.281464, 116663
31.200001, -795.600037, 596.700012, -3.000000, 393.000000, -567.000000, 970.822510, 359.281464, 116674
35.100002, -799.500000, 585.000000, -3.000000, 393.000000, -567.000000, 970.773438, 359.541687, 116685
31.200001, -791.700012, 596.700012, -3.000000, 393.000000, -567.000000, 970.773438, 359.541687, 116696
35.100002, -791.700012, 585.000000, -3.000000, 393.000000, -567.000000, 970.773438, 359.541687, 116707
27.300001, -799.500000, 585.000000, 4.500000, 397.500000, -576.000000, 970.773438, 359.541687, 116718
35.100002, -787.800049, 592.799988, 4.500000, 397.500000, -576.000000, 970.862793, 358.605408, 116729
27.300001, -791.700012, 592.799988, 4.500000, 397.500000, -576.000000, 970.862793, 358.605408, 116740
27.300001, -791.700012, 581.100037, 4.500000, 397.500000, -576.000000, 970.805420, 359.466217, 116751
23.400002, -795.600037, 581.100037, 4.500000, 397.500000, -576.000000, 970.805420, 359.466217, 116762
15.600000, -795.600037, 585.000000, 4.500000, 397.500000, -576.000000, 970.896973, 358.677216, 116773
27.300001, -791.700012, 573.299988, 4.500000, 397.500000, -576.000000, 970.896973, 358.677216, 116784
27.300001, -791.700012, 588.900024, 4.500000, 397.500000, -576.000000, 970.896973, 358.677216, 116795
31.200001, -803.400024, 585.000000, 4.500000, 397.500000, -576.000000, 970.735352, 360.070496, 116806
27.300001, -807.300049, 596.700012, -9.000000, 396.000000, -555.000000, 970.735352, 360.070496, 116817
35.100002, -791.700012, 588.900024, -9.000000, 396.000000, -555.000000, 970.735352, 360.070496, 116828
35.100002, -795.600037, 581.100037, -9.000000, 396.000000, -555.000000, 970.735352, 360.070496, 116839
23.400002, -787.800049, 581.100037, -9.000000, 396.000000, -555.000000, 970.735352, 360.070496, 116850
31.200001, -795.600037, 592.799988, -9.000000, 396.000000, -555.000000, 970.841797, 359.026947, 116861
31.200001, -791.700012, 588.900024, -9.000000, 396.000000, -555.000000, 970.841797, 359.026947, 116872
27.300001, -783.900024, 581.100037, -9.000000, 396.000000, -555.000000, 970.841797, 359.026947, 116883
19.500000, -791.700012, 581.100037, -9.000000, 396.000000, -555.000000, 970.841797, 359.026947, 116894
27.300001, -791.700012, 588.900024, -9.000000, 396.000000, -555.000000, 970.841797, 359.026947, 116905
35.100002, -780.000000, 581.100037, -1.500000, 399.000000, -570.000000, 970.818359, 359.850830, 116916
31.200001, -799.500000, 585.000000, -1.500000, 399.000000, -570.000000, 970.818359, 359.850830, 116927
23.400002, -791.700012, 604.500000, -1.500000, 399.000000, -570.000000, 970.818359, 359.850830, 116938
35.100002, -787.800049, 588.900024, -1.500000, 399.000000, -570.000000, 970.818359, 359.850830, 116949
27.300001, -803.400024, 581.100037, -1.500000, 399.000000, -570.000000, 970.822510, 359.318909, 116960
35.100002, -791.700012, 588.900024, -1.500000, 399.000000, -570.000000, 970.822510, 359.318909, 116971
31.200001, -795.600037, 592.799988, -1.500000, 399.000000, -570.000000, 970.822510, 359.318909, 116982
23.400002, -795.600037, 577.200012, -1.500000, 399.000000, -570.000000, 970.922119, 358.460724, 116993
31.200001, -795.600037, 588.900024, -1.500000, 399.000000, -570.000000, 970.922119, 358.460724, 117004
23.400002, -807.300049, 592.799988, -12.000000, 402.000000, -559.500000, 970.845703, 359.119080, 117015
31.200001, -787.800049, 581.100037, -12.000000, 402.000000, -559.500000, 970.845703, 359.119080, 117026
27.300001, -791.700012, 596.700012, -12.000000, 402.000000, -559.500000, 970.882080, 358.805237, 117037
35.100002, -780.000000, 585.000000, -12.000000, 402.000000, -559.500000, 970.882080, 358.805237, 117048
23.400002, -791.700012, 592.799988, -12.000000, 402.000000, -559.500000, 970.882080, 358.805237, 117059
35.100002, -783.900024, 588.900024, -12.000000, 402.000000, -559.500000, 970.882080, 358.805237, 117070
19.500000, -787.800049, 592.799988, -12.000000, 402.000000, -559.500000, 970.882080, 358.805237, 117081
35.100002, -799.500000, 585.000000, -12.000000, 402.000000, -559.500000, 970.882080, 358.805237, 117092
23.400002, -799.500000, 585.000000, -10.500000, 403.500000, -567.000000, 970.905273, 359.175812, 117103
31.200001, -787.800049, 588.900024, -10.500000, 403.500000, -567.000000, 970.905273, 359.175812, 117114
31.200001, -795.600037, 585.000000, -10.500000, 403.500000, -567.000000, 970.905273, 359.175812, 117125
23.400002, -787.800049, 596.700012, -10.500000, 403.500000, -567.000000, 970.905273, 359.175812, 117136
31.200001, -783.900024, 577.200012, -10.500000, 403.500000, -567.000000, 970.905273, 359.175812, 117147
39.000000, -791.700012, 588.900024, -10.500000, 403.500000, -567.000000, 970.802979, 359.047760, 117158
27.300001, -799.500000, 581.100037, -10.500000, 403.500000, -567.000000, 970.802979, 359.047760, 117169
35.100002, -803.400024, 592.799988, -10.500000, 403.500000, -567.000000, 970.802979, 359.047760, 117180
27.300001, -811.200012, 585.000000, -10.500000, 403.500000, -567.000000, 970.854004, 359.047760, 117191
19.500000, -795.600037, 569.400024, -7.500000, 391.500000, -561.000000, 970.854004, 359.047760, 117202
42.900002, -799.500000, 585.000000, -7.500000, 391.500000, -561.000000, 970.885986, 358.771423, 117213
39.000000, -783.900024, 592.799988, -7.500000, 391.500000, -561.000000, 970.885986, 358.771423, 117224
35.100002, -780.000000, 588.900024, -7.500000, 391.500000, -561.000000, 970.885986, 358.771423, 117235
35.100002, -783.900024, 581.100037, -7.500000, 391.500000, -561.000000, 970.887939, 358.754761, 117246
42.900002, -795.600037, 585.000000, -7.500000, 391.500000, -561.000000, 970.887939, 358.754761, 117257
27.300001, -799.500000, 600.600037, -7.500000, 391.500000, -561.000000, 970.845459, 359.121155, 117268
31.200001, -795.600037, 588.900024, -7.500000, 391.500000, -561.000000, 970.845459, 359.121155, 117279
23.400002, -791.700012, 581.100037, -7.500000, 391.500000, -561.000000, 970.845459, 359.121155, 117290
19.500000, -787.800049, 592.799988, -4.500000, 393.000000, -559.500000, 970.845459, 359.121155, 117301
23.400002, -799.500000, 581.100037, -4.500000, 393.000000, -559.500000, 970.845459, 359.121155, 117312
42.900002, -791.700012, 581.100037, -4.500000, 393.000000, -559.500000, 970.817871, 359.341827, 117323
23.400002, -799.500000, 588.900024, -4.500000, 393.000000, -559.500000, 970.817871, 359.341827, 117334
27.300001, -795.600037, 596.700012, -4.500000, 393.000000, -559.500000, 970.817871, 359.341827, 117345
23.400002, -799.500000, 588.900024, -4.500000, 393.000000, -559.500000, 970.817871, 359.341827, 117356
19.500000, -787.800049, 588.900024, -4.500000, 393.000000, -559.500000, 970.847656, 358.538269, 117367
35.100002, -776.100037, 596.700012, -4.500000, 393.000000, -559.500000, 970.847656, 358.538269, 117378
35.100002, -803.400024, 588.900024, -4.500000, 393.000000, -559.500000, 970.847656, 358.538269, 117389
31.200001, -787.800049, 592.799988, -7.500000, 400.500000, -570.000000, 970.885742, 358.773499, 117400
15.600000, -783.900024, 581.100037, -7.500000, 400.500000, -570.000000, 970.885742, 358.773499, 117411
19.500000, -787.800049, 588.900024, -7.500000, 400.500000, -570.000000, 970.822021, 359.323090, 117422
31.200001, -787.800049, 585.000000, -7.500000, 400.500000, -570.000000, 970.822021, 359.323090, 117433
35.100002, -783.900024, 592.799988, -7.500000, 400.500000, -570.000000, 970.732910, 360.091309, 117444
23.400002, -787.800049, 592.799988, -7.500000, 400.500000, -570.000000, 970.732910, 360.091309, 117455
27.300001, -791.700012, 585.000000, -7.500000, 400.500000, -570.000000, 970.732910, 360.091309, 117466
23.400002, -803.400024, 588.900024, -7.500000, 400.500000, -570.000000, 970.732910, 360.091309, 117477
27.300001, -787.800049, 592.799988, -7.500000, 399.000000, -553.500000, 970.732910, 360.091309, 117488
42.900002, -799.500000, 592.799988, -7.500000, 399.000000, -553.500000, 970.732910, 360.091309, 117499
31.200001, -791.700012, 604.500000, -7.500000, 399.000000, -553.500000, 970.935547, 359.312164, 117510
35.100002, -787.800049, 585.000000, -7.500000, 399.000000, -553.500000, 970.935547, 359.312164, 117521
35.100002, -791.700012, 588.900024, -7.500000, 399.000000, -553.500000, 970.935547, 359.312164, 117532
35.100002, -783.900024, 592.799988, -7.500000, 399.000000, -553.500000, 970.935547, 359.312164, 117543
23.400002, -791.700012, 592.799988, -7.500000, 399.000000, -553.500000, 970.935547, 359.312164, 117554
39.000000, -791.700012, 585.000000, -7.500000, 399.000000, -553.500000, 970.829590, 359.823761, 117565
27.300001, -787.800049, 573.299988, -7.500000, 399.000000, -553.500000, 970.829590, 359.823761, 117576
19.500000, -780.000000, 588.900024, -16.500000, 402.000000, -571.500000, 970.829590, 359.823761, 117587
39.000000, -787.800049, 585.000000, -16.500000, 402.000000, -571.500000, 970.829590, 359.823761, 117598
39.000000, -795.600037, 600.600037, -16.500000, 402.000000, -571.500000, 970.811279, 359.632751, 117609
19.500000, -787.800049, 588.900024, -16.500000, 402.000000, -571.500000, 970.811279, 359.632751, 117620
27.300001, -799.500000, 585.000000, -16.500000, 402.000000, -571.500000, 970.811279, 359.632751, 117631
31.200001, -783.900024, 585.000000, -16.500000, 402.000000, -571.500000, 970.832764, 359.230957, 117642
35.100002, -795.600037, 581.100037, -16.500000, 402.000000, -571.500000, 970.832764, 359.230957, 117653
39.000000, -787.800049, 581.100037, -16.500000, 402.000000, -571.500000, 970.819824, 359.341827, 117664
35.100002, -791.700012, 585.000000, -16.500000, 402.000000, -571.500000, 970.819824, 359.341827, 117675
27.300001, -803.400024, 585.000000, -16.500000, 402.000000, -571.500000, 970.826172, 359.287170, 117686
19.500000, -807.300049, 585.000000, -9.000000, 402.000000, -568.500000, 970.826172, 359.287170, 117697
23.400002, -799.500000, 581.100037, -9.000000, 402.000000, -568.500000, 970.826172, 359.287170, 117708
31.200001, -787.800049, 596.700012, -9.000000, 402.000000, -568.500000, 970.826172, 359.287170, 117719
35.100002, -799.500000, 585.000000, -9.000000, 402.000000, -568.500000, 970.826172, 359.287170, 117730
23.400002, -803.400024, 592.799988, -9.000000, 402.000000, -568.500000, 970.826172, 359.287170, 117741
27.300001, -795.600037, 592.799988, -9.000000, 402.000000, -568.500000, 970.870605, 359.415741, 117752
27.300001, -795.600037, 592.799988, -9.000000, 402.000000, -568.500000, 970.870605, 359.415741, 117763
19.500000, -795.600037, 581.100037, -9.000000, 402.000000, -568.500000, 970.870605, 359.415741, 117774
27.300001, -795.600037, 581.100037, -12.000000, 399.000000, -567.000000, 970.870605, 359.415741, 117785
19.500000, -799.500000, 581.100037, -12.000000, 399.000000, -567.000000, 970.870605, 359.415741, 117796
31.200001, -780.000000, 581.100037, -12.000000, 399.000000, -567.000000, 970.828369, 359.397003, 117807
23.400002, -791.700012, 585.000000, -12.000000, 399.000000, -567.000000, 970.828369, 359.397003, 117818
31.200001, -795.600037, 573.299988, -12.000000, 399.000000, -567.000000, 970.828369, 359.397003, 117829
27.300001, -795.600037, 588.900024, -12.000000, 399.000000, -567.000000, 970.828369, 359.397003, 117840
39.000000, -803.400024, 573.299988, -12.000000, 399.000000, -567.000000, 970.767090, 358.719391, 117851
23.400002, -795.600037, 600.600037, -12.000000, 399.000000, -567.000000, 970.767090, 358.719391, 117862
23.400002, -799.500000, 588.900024, -12.000000, 399.000000, -567.000000, 970.909180, 358.571564, 117873
23.400002, -795.600037, 585.000000, 0.000000, 397.500000, -570.000000, 970.909180, 358.571564, 117884
39.000000, -787.800049, 585.000000, 0.000000, 397.500000, -570.000000, 970.909180, 358.571564, 117895
27.300001, -795.600037, 600.600037, 0.000000, 397.500000, -570.000000, 970.841064, 359.158630, 117906
31.200001, -803.400024, 588.900024, 0.000000, 397.500000, -570.000000, 970.841064, 359.158630, 117917
39.000000, -803.400024, 596.700012, 0.000000, 397.500000, -570.000000, 970.849609, 359.085236, 117928
27.300001, -795.600037, 588.900024, 0.000000, 397.500000, -570.000000, 970.849609, 359.085236, 117939
27.300001, -803.400024, 588.900024, 0.000000, 397.500000, -570.000000, 970.849609, 359.085236, 117950
31.200001, -795.600037, 600.600037, 0.000000, 397.500000, -570.000000, 970.849609, 359.085236, 117961
27.300001, -791.700012, 588.900024, -6.000000, 400.500000, -567.000000, 970.849609, 359.085236, 117972
27.300001, -791.700012, 592.799988, -6.000000, 400.500000, -567.000000, 970.849609, 359.085236, 117983
27.300001, -791.700012, 592.799988, -6.000000, 400.500000, -567.000000, 970.892090, 360.017395, 117994
35.100002, -795.600037, 596.700012, -6.000000, 400.500000, -567.000000, 970.892090, 360.017395, 118005
27.300001, -803.400024, 588.900024, -6.000000, 400.500000, -567.000000, 970.892090, 360.017395, 118016
31.200001, -799.500000, 596.700012, -6.000000, 400.500000, -567.000000, 970.892090, 360.017395, 118027
35.100002, -795.600037, 569.400024, -6.000000, 400.500000, -567.000000, 970.892090, 360.017395, 118038
35.100002, -776.100037, 577.200012, -6.000000, 400.500000, -567.000000, 970.828369, 358.809937, 118049
19.500000, -787.800049, 588.900024, -6.000000, 400.500000, -567.000000, 970.828369, 358.809937, 118060
27.300001, -780.000000, 585.000000, 1.500000, 394.500000, -573.000000, 970.828369, 358.809937, 118071
35.100002, -807.300049, 592.799988, 1.500000, 394.500000, -573.000000, 970.864746, 358.954620, 118082
27.300001, -787.800049, 577.200012, 1.500000, 394.500000, -573.000000, 970.864746, 358.954620, 118093
31.200001, -807.300049, 588.900024, 1.500000, 394.500000, -573.000000, 970.822021, 359.323090, 118104
35.100002, -780.000000, 600.600037, 1.500000, 394.500000, -573.000000, 970.822021, 359.323090, 118115
35.100002, -799.500000, 585.000000, 1.500000, 394.500000, -573.000000, 970.913330, 358.536194, 118126
31.200001, -783.900024, 585.000000, 1.500000, 394.500000, -573.000000, 970.913330, 358.536194, 118137
39.000000, -799.500000, 581.100037, 1.500000, 394.500000, -573.000000, 970.913330, 358.536194, 118148
23.400002, -791.700012, 585.000000, 1.500000, 394.500000, -573.000000, 970.811523, 359.413116, 118159
27.300001, -783.900024, 585.000000, 1.500000, 394.500000, -573.000000, 970.811523, 359.413116, 118170
46.800003, -803.400024, 596.700012, -10.500000, 396.000000, -562.500000, 970.811523, 359.413116, 118181
46.800003, -787.800049, 585.000000, -10.500000, 396.000000, -562.500000, 970.811523, 359.413116, 118192
35.100002, -791.700012, 585.000000, -10.500000, 396.000000, -562.500000, 970.811523, 359.413116, 118203
39.000000, -799.500000, 596.700012, -10.500000, 396.000000, -562.500000, 970.794434, 359.724884, 118214
35.100002, -791.700012, 604.500000, -10.500000, 396.000000, -562.500000, 970.794434, 359.724884, 118225
42.900002, -799.500000, 588.900024, -10.500000, 396.000000, -562.500000, 970.794434, 359.724884, 118236
31.200001, -791.700012, 600.600037, -10.500000, 396.000000, -562.500000, 970.794434, 359.724884, 118247
31.200001, -791.700012, 592.799988, -10.500000, 396.000000, -562.500000, 970.857910, 358.809937, 118258
27.300001, -795.600037, 588.900024, -6.000000, 396.000000, -567.000000, 970.857910, 358.809937, 118269
35.100002, -783.900024, 600.600037, -6.000000, 396.000000, -567.000000, 970.896484, 358.681396, 118280
27.300001, -776.100037, 588.900024, -6.000000, 396.000000, -567.000000, 970.896484, 358.681396, 118291
35.100002, -791.700012, 585.000000, -6.000000, 396.000000, -567.000000, 970.896484, 358.681396, 118302
39.000000, -791.700012, 592.799988, -6.000000, 396.000000, -567.000000, 970.820068, 359.339752, 118313
27.300001, -783.900024, 588.900024, -6.000000, 396.000000, -567.000000, 970.820068, 359.339752, 118324
27.300001, -795.600037, 588.900024, -6.000000, 396.000000, -567.000000, 970.902832, 358.626740, 118335
31.200001, -791.700012, 585.000000, -6.000000, 396.000000, -567.000000, 970.902832, 358.626740, 118346
31.200001, -787.800049, 588.900024, -6.000000, 396.000000, -567.000000, 970.902832, 358.626740, 118357
35.100002, -783.900024, 585.000000, -12.000000, 402.000000, -567.000000, 970.902832, 358.626740, 118368
27.300001, -803.400024, 577.200012, -12.000000, 402.000000, -567.000000, 970.902832, 358.626740, 118379
23.400002, -795.600037, 581.100037, -12.000000, 402.000000, -567.000000, 970.902832, 358.626740, 118390
27.300001, -803.400024, 581.100037, -12.000000, 402.000000, -567.000000, 970.864502, 358.410248, 118401
42.900002, -795.600037, 592.799988, -12.000000, 402.000000, -567.000000, 970.864502, 358.410248, 118412
35.100002, -787.800049, 573.299988, -12.000000, 402.000000, -567.000000, 970.864502, 358.410248, 118423
27.300001, -791.700012, 585.000000, -12.000000, 402.000000, -567.000000, 970.864502, 358.410248, 118434
35.100002, -791.700012, 577.200012, -12.000000, 402.000000, -567.000000, 970.864502, 358.410248, 118445
19.500000, -795.600037, 577.200012, -10.500000, 399.000000, -567.000000, 970.905762, 358.902039, 118456
23.400002, -783.900024, 581.100037, -10.500000, 399.000000, -567.000000, 970.905762, 358.902039, 118467
31.200001, -791.700012, 573.299988, -10.500000, 399.000000, -567.000000, 970.905762, 358.902039, 118478
31.200001, -803.400024, 600.600037, -10.500000, 399.000000, -567.000000, 970.905762, 358.902039, 118489
35.100002, -787.800049, 588.900024, -10.500000, 399.000000, -567.000000, 970.790283, 358.738098, 118500
27.300001, -799.500000, 592.799988, -10.500000, 399.000000, -567.000000, 970.790283, 358.738098, 118511
35.100002, -799.500000, 588.900024, -10.500000, 399.000000, -567.000000, 970.811523, 359.413116, 118522
39.000000, -783.900024, 592.799988, -10.500000, 399.000000, -567.000000, 970.811523, 359.413116, 118533
35.100002, -799.500000, 585.000000, -10.500000, 399.000000, -567.000000, 970.811523, 359.413116, 118544
23.400002, -791.700012, 577.200012, -10.500000, 399.000000, -567.000000, 970.777344, 359.708221, 118555
35.100002, -791.700012, 573.299988, 3.000000, 394.500000, -576.000000, 970.777344, 359.708221, 118566
31.200001, -780.000000, 569.400024, 3.000000, 394.500000, -576.000000, 970.839111, 359.175812, 118577
35.100002, -787.800049, 585.000000, 3.000000, 394.500000, -576.000000, 970.839111, 359.175812, 118588
27.300001, -780.000000, 588.900024, 3.000000, 394.500000, -576.000000, 970.839111, 359.175812, 118599
35.100002, -803.400024, 588.900024, 3.000000, 394.500000, -576.000000, 970.839111, 359.175812, 118610
27.300001, -791.700012, 585.000000, 3.000000, 394.500000, -576.000000, 970.839111, 359.175812, 118621
39.000000, -795.600037, 600.600037, 3.000000, 394.500000, -576.000000, 970.839111, 359.175812, 118632
15.600000, -787.800049, 592.799988, 3.000000, 394.500000, -576.000000, 970.820313, 359.434998, 118643
23.400002, -795.600037, 585.000000, -9.000000, 399.000000, -565.500000, 970.820313, 359.434998, 118654
15.600000, -799.500000, 581.100037, -9.000000, 399.000000, -565.500000, 970.820313, 359.434998, 118665
27.300001, -799.500000, 581.100037, -9.000000, 399.000000, -565.500000, 970.820313, 359.434998, 118676
15.600000, -795.600037, 581.100037, -9.000000, 399.000000, -565.500000, 970.820313, 359.434998, 118687
27.300001, -787.800049, 581.100037, -9.000000, 399.000000, -565.500000, 970.785645, 359.249695, 118698
27.300001, -791.700012, 581.100037, -9.000000, 399.000000, -565.500000, 970.785645, 359.249695, 118709
31.200001, -795.600037, 588.900024, -9.000000, 399.000000, -565.500000, 970.785645, 359.249695, 118720
39.000000, -783.900024, 585.000000, -9.000000, 399.000000, -565.500000, 970.785645, 359.249695, 118731
23.400002, -807.300049, 585.000000, -9.000000, 399.000000, -565.500000, 970.785645, 359.249695, 118742
23.400002, -795.600037, 592.799988, -9.000000, 399.000000, -564.000000, 970.662598, 359.270508, 118753
23.400002, -799.500000, 588.900024, -9.000000, 399.000000, -564.000000, 970.662598, 359.270508, 118764
35.100002, -799.500000, 596.700012, -9.000000, 399.000000, -564.000000, 970.662598, 359.270508, 118775
31.200001, -791.700012, 585.000000, -9.000000, 399.000000, -564.000000, 970.662598, 359.270508, 118786
31.200001, -795.600037, 596.700012, -9.000000, 399.000000, -564.000000, 970.847412, 359.103973, 118797
27.300001, -795.600037, 585.000000, -9.000000, 399.000000, -564.000000, 970.847412, 359.103973, 118808
23.400002, -791.700012, 592.799988, -9.000000, 399.000000, -564.000000, 970.847412, 359.103973, 118819
27.300001, -791.700012, 588.900024, -9.000000, 399.000000, -564.000000, 970.792236, 359.579681, 118830
31.200001, -795.600037, 592.799988, -9.000000, 399.000000, -564.000000, 970.792236, 359.579681, 118841
31.200001, -791.700012, 588.900024, 1.500000, 403.500000, -565.500000, 970.893799, 358.704285, 118852
19.500000, -780.000000, 585.000000, 1.500000, 403.500000, -565.500000, 970.893799, 358.704285, 118863
27.300001, -787.800049, 592.799988, 1.500000, 403.500000, -565.500000, 970.872559, 358.887482, 118874
35.100002, -791.700012, 588.900024, 1.500000, 403.500000, -565.500000, 970.872559, 358.887482, 118885
27.300001, -787.800049, 585.000000, 1.500000, 403.500000, -565.500000, 970.872559, 358.887482, 118896
23.400002, -783.900024, 588.900024, 1.500000, 403.500000, -565.500000, 970.872559, 358.887482, 118907
27.300001, -787.800049, 577.200012, 1.500000, 403.500000, -565.500000, 970.872559, 358.887482, 118918
23.400002, -799.500000, 581.100037, 1.500000, 403.500000, -565.500000, 970.872559, 358.887482, 118929
27.300001, -787.800049, 581.100037, 1.500000, 403.500000, -565.500000, 970.840576, 359.509918, 118940
27.300001, -803.400024, 592.799988, -12.000000, 400.500000, -565.500000, 970.840576, 359.509918, 118951
23.400002, -807.300049, 588.900024, -12.000000, 400.500000, -565.500000, 970.840576, 359.509918, 118962
31.200001, -799.500000, 588.900024, -12.000000, 400.500000, -565.500000, 970.840576, 359.509918, 118973
31.200001, -783.900024, 577.200012, -12.000000, 400.500000, -565.500000, 970.840576, 359.509918, 118984
23.400002, -783.900024, 585.000000, -12.000000, 400.500000, -565.500000, 970.868652, 359.672302, 118995
35.100002, -791.700012, 585.000000, -12.000000, 400.500000, -565.500000, 970.868652, 359.672302, 119006
27.300001, -795.600037, 588.900024, -12.000000, 400.500000, -565.500000, 970.868652, 359.672302, 119017
31.200001, -803.400024, 585.000000, -12.000000, 400.500000, -565.500000, 970.868652, 359.672302, 119028
23.400002, -795.600037, 588.900024, -12.000000, 400.500000, -565.500000, 970.868652, 359.672302, 119039
35.100002, -795.600037, 577.200012, -7.500000, 391.500000, -567.000000, 970.925781, 360.128784, 119050
27.300001, -803.400024, 577.200012, -7.500000, 391.500000, -567.000000, 970.925781, 360.128784, 119061
35.100002, -791.700012, 588.900024, -7.500000, 391.500000, -567.000000, 970.925781, 360.128784, 119072
35.100002, -791.700012, 577.200012, -7.500000, 391.500000, -567.000000, 970.925781, 360.128784, 119083
19.500000, -795.600037, 592.799988, -7.500000, 391.500000, -567.000000, 970.925781, 360.128784, 119094
23.400002, -795.600037, 581.100037, -7.500000, 391.500000, -567.000000, 970.876709, 358.851563, 119105
31.200001, -799.500000, 585.000000, -7.500000, 391.500000, -567.000000, 970.876709, 358.851563, 119116
42.900002, -791.700012, 585.000000, -7.500000, 391.500000, -567.000000, 970.906494, 358.595520, 119127
35.100002, -795.600037, 581.100037, -7.500000, 391.500000, -567.000000, 970.906494, 358.595520, 119138
19.500000, -787.800049, 588.900024, -3.000000, 394.500000, -571.500000, 970.906494, 358.595520, 119149
15.600000, -791.700012, 585.000000, -3.000000, 394.500000, -571.500000, 970.881104, 358.814087, 119160
23.400002, -795.600037, 588.900024, -3.000000, 394.500000, -571.500000, 970.881104, 358.814087, 119171
27.300001, -799.500000, 585.000000, -3.000000, 394.500000, -571.500000, 970.798584, 359.525024, 119182
19.500000, -799.500000, 588.900024, -3.000000, 394.500000, -571.500000, 970.798584, 359.525024, 119193
23.400002, -799.500000, 588.900024, -3.000000, 394.500000, -571.500000, 970.798584, 359.525024, 119204
19.500000, -791.700012, 585.000000, -3.000000, 394.500000, -571.500000, 970.798584, 359.525024, 119215
31.200001, -795.600037, 592.799988, -3.000000, 394.500000, -571.500000, 970.798584, 359.525024, 119226
27.300001, -799.500000, 600.600037, -1.500000, 394.500000, -571.500000, 970.798584, 359.525024, 119237
27.300001, -791.700012, 581.100037, -1.500000, 394.500000, -571.500000, 970.821533, 358.576263, 119248
27.300001, -783.900024, 573.299988, -1.500000, 394.500000, -571.500000, 970.821533, 358.576263, 119259
35.100002, -795.600037, 573.299988, -1.500000, 394.500000, -571.500000, 970.821533, 358.576263, 119270
35.100002, -795.600037, 596.700012, -1.500000, 394.500000, -571.500000, 970.821533, 358.576263, 119281
15.600000, -791.700012, 592.799988, -1.500000, 394.500000, -571.500000, 970.821533, 358.576263, 119292
31.200001, -795.600037, 604.500000, -1.500000, 394.500000, -571.500000, 970.874756, 359.937775, 119303
35.100002, -791.700012, 585.000000, -1.500000, 394.500000, -571.500000, 970.874756, 359.937775, 119314
27.300001, -787.800049, 581.100037, -1.500000, 394.500000, -571.500000, 970.902588, 358.628815, 119325
19.500000, -811.200012, 577.200012, -1.500000, 394.500000, -571.500000, 970.902588, 358.628815, 119336
27.300001, -787.800049, 592.799988, -7.500000, 396.000000, -562.500000, 970.902588, 358.628815, 119347
27.300001, -799.500000, 581.100037, -7.500000, 396.000000, -562.500000, 970.838623, 359.180481, 119358
31.200001, -791.700012, 585.000000, -7.500000, 396.000000, -562.500000, 970.838623, 359.180481, 119369
39.000000, -799.500000, 600.600037, -7.500000, 396.000000, -562.500000, 970.864258, 358.959290, 119380
31.200001, -795.600037, 588.900024, -7.500000, 396.000000, -562.500000, 970.864258, 358.959290, 119391
35.100002, -795.600037, 588.900024, -7.500000, 396.000000, -562.500000, 970.864258, 358.959290, 119402
19.500000, -795.600037, 596.700012, -7.500000, 396.000000, -562.500000, 970.841064, 359.158630, 119413
31.200001, -791.700012, 600.600037, -7.500000, 396.000000, -562.500000, 970.841064, 359.158630, 119424
31.200001, -795.600037, 573.299988, -9.000000, 403.500000, -567.000000, 970.841064, 359.158630, 119435
31.200001, -787.800049, 581.100037, -9.000000, 403.500000, -567.000000, 970.841064, 359.158630, 119446
27.300001, -791.700012, 592.799988, -9.000000, 403.500000, -567.000000, 970.841064, 359.158630, 119457
23.400002, -787.800049, 585.000000, -9.000000, 403.500000, -567.000000, 970.806885, 358.576263, 119468
31.200001, -795.600037, 585.000000, -9.000000, 403.500000, -567.000000, 970.806885, 358.576263, 119479
31.200001, -799.500000, 592.799988, -9.000000, 403.500000, -567.000000, 970.806885, 358.576263, 119490
39.000000, -791.700012, 592.799988, -9.000000, 403.500000, -567.000000, 970.806885, 358.576263, 119501
23.400002, -791.700012, 592.799988, -9.000000, 403.500000, -567.000000, 970.892822, 359.251770, 119512
27.300001, -799.500000, 596.700012, -9.000000, 403.500000, -567.000000, 970.892822, 359.251770, 119523
35.100002, -791.700012, 592.799988, -6.000000, 402.000000, -562.500000, 970.777344, 359.708221, 119534
39.000000, -791.700012, 588.900024, -6.000000, 402.000000, -562.500000, 970.777344, 359.708221, 119545
27.300001, -783.900024, 581.100037, -6.000000, 402.000000, -562.500000, 970.777344, 359.708221, 119556
27.300001, -795.600037, 585.000000, -6.000000, 402.000000, -562.500000, 970.851563, 359.068573, 119567
27.300001, -799.500000, 592.799988, -6.000000, 402.000000, -562.500000, 970.851563, 359.068573, 119578
27.300001, -799.500000, 588.900024, -6.000000, 402.000000, -562.500000, 970.741211, 360.018951, 119589
42.900002, -807.300049, 577.200012, -6.000000, 402.000000, -562.500000, 970.741211, 360.018951, 119600
39.000000, -795.600037, 588.900024, -6.000000, 402.000000, -562.500000, 970.741211, 360.018951, 119611
23.400002, -795.600037, 588.900024, -6.000000, 402.000000, -562.500000, 970.741211, 360.018951, 119622
27.300001, -803.400024, 573.299988, 0.000000, 403.500000, -562.500000, 970.741211, 360.018951, 119633
35.100002, -787.800049, 581.100037, 0.000000, 403.500000, -562.500000, 970.741211, 360.018951, 119644
23.400002, -791.700012, 581.100037, 0.000000, 403.500000, -562.500000, 970.823975, 359.068573, 119655
27.300001, -787.800049, 596.700012, 0.000000, 403.500000, -562.500000, 970.823975, 359.068573, 119666
23.400002, -787.800049, 581.100037, 0.000000, 403.500000, -562.500000, 970.823975, 359.068573, 119677
23.400002, -787.800049, 592.799988, 0.000000, 403.500000, -562.500000, 970.823975, 359.068573, 119688
31.200001, -787.800049, 585.000000, 0.000000, 403.500000, -562.500000, 970.823975, 359.068573, 119699
42.900002, -795.600037, 588.900024, 0.000000, 403.500000, -562.500000, 970.761963, 359.272614, 119710
39.000000, -795.600037, 569.400024, -6.000000, 394.500000, -565.500000, 970.761963, 359.272614, 119721
39.000000, -803.400024, 581.100037, -6.000000, 394.500000, -565.500000, 970.761963, 359.272614, 119732
23.400002, -791.700012, 604.500000, -6.000000, 394.500000, -565.500000, 970.761963, 359.272614, 119743
39.000000, -787.800049, 588.900024, -6.000000, 394.500000, -565.500000, 970.766357, 359.802948, 119754
27.300001, -803.400024, 581.100037, -6.000000, 394.500000, -565.500000, 970.766357, 359.802948, 119765
46.800003, -787.800049, 569.400024, -6.000000, 394.500000, -565.500000, 970.753662, 359.912262, 119776
19.500000, -787.800049, 585.000000, -6.000000, 394.500000, -565.500000, 970.753662, 359.912262, 119787
39.000000, -799.500000, 588.900024, -6.000000, 394.500000, -565.500000, 970.753662, 359.912262, 119798
27.300001, -791.700012, 585.000000, -6.000000, 394.500000, -565.500000, 970.764160, 359.821686, 119809
31.200001, -780.000000, 585.000000, -6.000000, 394.500000, -565.500000, 970.764160, 359.821686, 119820
31.200001, -787.800049, 592.799988, -3.000000, 403.500000, -562.500000, 970.851318, 359.070679, 119831
23.400002, -780.000000, 588.900024, -3.000000, 403.500000, -562.500000, 970.851318, 359.070679, 119842
27.300001, -783.900024, 585.000000, -3.000000, 403.500000, -562.500000, 970.851318, 359.070679, 119853
35.100002, -799.500000, 585.000000, -3.000000, 403.500000, -562.500000, 970.851318, 359.070679, 119864
35.100002, -795.600037, 585.000000, -3.000000, 403.500000, -562.500000, 970.851318, 359.070679, 119875
39.000000, -795.600037, 573.299988, -3.000000, 403.500000, -562.500000, 970.936035, 359.567169, 119886
39.000000, -791.700012, 588.900024, -3.000000, 403.500000, -562.500000, 970.936035, 359.567169, 119897
23.400002, -787.800049, 588.900024, -3.000000, 403.500000, -562.500000, 970.936035, 359.567169, 119908
39.000000, -795.600037, 581.100037, -10.500000, 391.500000, -568.500000, 970.936035, 359.567169, 119919
27.300001, -807.300049, 581.100037, -10.500000, 391.500000, -568.500000, 970.936035, 359.567169, 119930
27.300001, -799.500000, 588.900024, -10.500000, 391.500000, -568.500000, 970.936035, 359.567169, 119941
27.300001, -799.500000, 596.700012, -10.500000, 391.500000, -568.500000, 970.734375, 359.436554, 119952
27.300001, -783.900024, 585.000000, -10.500000, 391.500000, -568.500000, 970.734375, 359.436554, 119963
23.400002, -807.300049, 588.900024, -10.500000, 391.500000, -568.500000, 970.734375, 359.436554, 119974
27.300001, -803.400024, 573.299988, -10.500000, 391.500000, -568.500000, 970.734375, 359.436554, 119985
27.300001, -783.900024, 581.100037, -10.500000, 391.500000, -568.500000, 970.734375, 359.436554, 119996
27.300001, -791.700012, 577.200012, -10.500000, 391.500000, -568.500000, 970.893311, 358.963470, 120007
39.000000, -791.700012, 596.700012, -6.000000, 394.500000, -570.000000, 970.893311, 358.963470, 120018
31.200001, -799.500000, 577.200012, -6.000000, 394.500000, -570.000000, 970.893311, 358.963470, 120029
23.400002, -791.700012, 577.200012, -6.000000, 394.500000, -570.000000, 970.893311, 358.963470, 120040
35.100002, -795.600037, 573.299988, -6.000000, 394.500000, -570.000000, 970.799805, 359.514099, 120051
27.300001, -795.600037, 592.799988, -6.000000, 394.500000, -570.000000, 970.799805, 359.514099, 120062
39.000000, -799.500000, 592.799988, -6.000000, 394.500000, -570.000000, 970.799805, 359.514099, 120073
27.300001, -787.800049, 592.799988, -6.000000, 394.500000, -570.000000, 970.940186, 358.305115, 120084
19.500000, -799.500000, 585.000000, -6.000000, 394.500000, -570.000000, 970.940186, 358.305115, 120095
23.400002, -795.600037, 588.900024, -6.000000, 394.500000, -570.000000, 970.935791, 358.342590, 120106
39.000000, -783.900024, 581.100037, -15.000000, 399.000000, -565.500000, 970.935791, 358.342590, 120117
31.200001, -791.700012, 585.000000, -15.000000, 399.000000, -565.500000, 970.825439, 359.293427, 120128
35.100002, -799.500000, 588.900024, -15.000000, 399.000000, -565.500000, 970.825439, 359.293427, 120139
31.200001, -791.700012, 581.100037, -15.000000, 399.000000, -565.500000, 970.825439, 359.293427, 120150
15.600000, -787.800049, 585.000000, -15.000000, 399.000000, -565.500000, 970.825439, 359.293427, 120161
23.400002, -795.600037, 585.000000, -15.000000, 399.000000, -565.500000, 970.825439, 359.293427, 120172
31.200001, -783.900024, 577.200012, -15.000000, 399.000000, -565.500000, 970.825439, 359.293427, 120183
27.300001, -795.600037, 585.000000, -15.000000, 399.000000, -565.500000, 970.802002, 358.546600, 120194
27.300001, -799.500000, 585.000000, -10.500000, 391.500000, -561.000000, 970.802002, 358.546600, 120205
39.000000, -787.800049, 600.600037, -10.500000, 391.500000, -561.000000, 970.802002, 358.546600, 120216
31.200001, -791.700012, 585.000000, -10.500000, 391.500000, -561.000000, 970.802002, 358.546600, 120227
15.600000, -795.600037, 577.200012, -10.500000, 391.500000, -561.000000, 970.802002, 358.546600, 120238
27.300001, -795.600037, 600.600037, -10.500000, 391.500000, -561.000000, 970.857178, 358.820343, 120249
35.100002, -787.800049, 577.200012, -10.500000, 391.500000, -561.000000, 970.857178, 358.820343, 120260
23.400002, -791.700012, 581.100037, -10.500000, 391.500000, -561.000000, 970.857178, 358.820343, 120271
31.200001, -795.600037, 581.100037, -10.500000, 391.500000, -561.000000, 970.848389, 359.096161, 120282
19.500000, -791.700012, 573.299988, -10.500000, 391.500000, -561.000000, 970.848389, 359.096161, 120293
31.200001, -799.500000, 581.100037, -10.500000, 391.500000, -561.000000, 970.909912, 358.565857, 120304
23.400002, -803.400024, 604.500000, -3.000000, 394.500000, -562.500000, 970.909912, 358.565857, 120315
27.300001, -787.800049, 585.000000, -3.000000, 394.500000, -562.500000, 970.914307, 358.527863, 120326
27.300001, -799.500000, 581.100037, -3.000000, 394.500000, -562.500000, 970.914307, 358.527863, 120337
35.100002, -803.400024, 585.000000, -3.000000, 394.500000, -562.500000, 970.914307, 358.527863, 120348
15.600000, -795.600037, 588.900024, -3.000000, 394.500000, -562.500000, 970.863037, 358.969696, 120359
31.200001, -807.300049, 592.799988, -3.000000, 394.500000, -562.500000, 970.863037, 358.969696, 120370
31.200001, -791.700012, 585.000000, -3.000000, 394.500000, -562.500000, 970.863037, 358.969696, 120381
31.200001, -791.700012, 592.799988, -3.000000, 394.500000, -562.500000, 970.863037, 358.969696, 120392
23.400002, -795.600037, 600.600037, -4.500000, 394.500000, -568.500000, 970.863037, 358.969696, 120403
27.300001, -807.300049, 573.299988, -4.500000, 394.500000, -568.500000, 970.780518, 359.535950, 120414
31.200001, -791.700012, 577.200012, -4.500000, 394.500000, -568.500000, 970.780518, 359.535950, 120425
23.400002, -787.800049, 588.900024, -4.500000, 394.500000, -568.500000, 970.780518, 359.535950, 120436
27.300001, -791.700012, 588.900024, -4.500000, 394.500000, -568.500000, 970.780518, 359.535950, 120447
27.300001, -807.300049, 600.600037, -4.500000, 394.500000, -568.500000, 970.778076, 359.701996, 120458
31.200001, -791.700012, 585.000000, -4.500000, 394.500000, -568.500000, 970.778076, 359.701996, 120469
35.100002, -791.700012, 592.799988, -4.500000, 394.500000, -568.500000, 970.778076, 359.701996, 120480
39.000000, -783.900024, 581.100037, -4.500000, 394.500000, -568.500000, 970.824951, 359.298096, 120491
27.300001, -787.800049, 585.000000, -4.500000, 402.000000, -567.000000, 970.824951, 359.298096, 120502
31.200001, -795.600037, 585.000000, -4.500000, 402.000000, -567.000000, 970.784424, 359.646820, 120513
35.100002, -795.600037, 588.900024, -4.500000, 402.000000, -567.000000, 970.784424, 359.646820, 120524
23.400002, -795.600037, 585.000000, -4.500000, 402.000000, -567.000000, 970.824707, 359.300201, 120535
27.300001, -795.600037, 592.799988, -4.500000, 402.000000, -567.000000, 970.824707, 359.300201, 120546
27.300001, -787.800049, 588.900024, -4.500000, 402.000000, -567.000000, 970.824707, 359.300201, 120557
31.200001, -803.400024, 581.100037, -4.500000, 402.000000, -567.000000, 970.824707, 359.300201, 120568
31.200001, -795.600037, 577.200012, -4.500000, 402.000000, -567.000000, 970.824707, 359.300201, 120579
31.200001, -787.800049, 573.299988, -4.500000, 402.000000, -567.000000, 970.824707, 359.300201, 120590
31.200001, -803.400024, 592.799988, -9.000000, 393.000000, -574.500000, 970.924561, 359.116974, 120601
31.200001, -799.500000, 600.600037, -9.000000, 393.000000, -574.500000, 970.924561, 359.116974, 120612
27.300001, -791.700012, 581.100037, -9.000000, 393.000000, -574.500000, 970.924561, 359.116974, 120623
27.300001, -787.800049, 592.799988, -9.000000, 393.000000, -574.500000, 970.924561, 359.116974, 120634
27.300001, -783.900024, 585.000000, -9.000000, 393.000000, -574.500000, 970.924561, 359.116974, 120645
23.400002, -791.700012, 585.000000, -9.000000, 393.000000, -574.500000, 970.877686, 358.898407, 120656
35.100002, -787.800049, 573.299988, -9.000000, 393.000000, -574.500000, 970.877686, 358.898407, 120667
31.200001, -791.700012, 585.000000, -9.000000, 393.000000, -574.500000, 970.877686, 358.898407, 120678
35.100002, -791.700012, 585.000000, -9.000000, 393.000000, -574.500000, 970.877686, 358.898407, 120689
31.200001, -795.600037, 588.900024, -3.000000, 390.000000, -562.500000, 970.822266, 359.321014, 120700
35.100002, -799.500000, 585.000000, -3.000000, 390.000000, -562.500000, 970.822266, 359.321014, 120711
31.200001, -807.300049, 596.700012, -3.000000, 390.000000, -562.500000, 970.822266, 359.321014, 120722
35.100002, -807.300049, 585.000000, -3.000000, 390.000000, -562.500000, 970.869141, 358.917145, 120733
35.100002, -795.600037, 581.100037, -3.000000, 390.000000, -562.500000, 970.869141, 358.917145, 120744
35.100002, -791.700012, 588.900024, -3.000000, 390.000000, -562.500000, 971.002930, 357.763916, 120755
27.300001, -795.600037, 585.000000, -3.000000, 390.000000, -562.500000, 971.002930, 357.763916, 120766
31.200001, -795.600037, 592.799988, -3.000000, 390.000000, -562.500000, 970.767090, 359.796204, 120777
23.400002, -799.500000, 585.000000, -3.000000, 390.000000, -562.500000, 970.767090, 359.796204, 120788
35.100002, -791.700012, 588.900024, -12.000000, 403.500000, -565.500000, 970.767090, 359.796204, 120799
23.400002, -803.400024, 577.200012, -12.000000, 403.500000, -565.500000, 970.767090, 359.796204, 120810
39.000000, -787.800049, 596.700012, -12.000000, 403.500000, -565.500000, 970.767090, 359.796204, 120821
35.100002, -799.500000, 581.100037, -12.000000, 403.500000, -565.500000, 970.767090, 359.796204, 120832
31.200001, -795.600037, 577.200012, -12.000000, 403.500000, -565.500000, 970.839355, 359.394379, 120843
35.100002, -803.400024, 585.000000, -12.000000, 403.500000, -565.500000, 970.839355, 359.394379, 120854
27.300001, -795.600037, 577.200012, -12.000000, 403.500000, -565.500000, 970.839355, 359.394379, 120865
35.100002, -795.600037, 592.799988, -12.000000, 403.500000, -565.500000, 970.839355, 359.394379, 120876
39.000000, -795.600037, 588.900024, -7.500000, 400.500000, -556.500000, 970.839355, 359.394379, 120887
35.100002, -795.600037, 573.299988, -7.500000, 400.500000, -556.500000, 970.845459, 358.315002, 120898
31.200001, -795.600037, 585.000000, -7.500000, 400.500000, -556.500000, 970.845459, 358.315002, 120909
31.200001, -787.800049, 588.900024, -7.500000, 400.500000, -556.500000, 970.845459, 358.315002, 120920
23.400002, -795.600037, 585.000000, -7.500000, 400.500000, -556.500000, 970.845459, 358.315002, 120931
31.200001, -791.700012, 585.000000, -7.500000, 400.500000, -556.500000, 970.845459, 358.315002, 120942
27.300001, -795.600037, 585.000000, -7.500000, 400.500000, -556.500000, 970.845459, 358.315002, 120953
27.300001, -787.800049, 585.000000, -7.500000, 400.500000, -556.500000, 970.698975, 359.270508, 120964
23.400002, -803.400024, 585.000000, -7.500000, 400.500000, -556.500000, 970.698975, 359.270508, 120975
35.100002, -791.700012, 577.200012, -9.000000, 400.500000, -564.000000, 970.698975, 359.270508, 120986
31.200001, -803.400024, 600.600037, -9.000000, 400.500000, -564.000000, 970.698975, 359.270508, 120997
39.000000, -787.800049, 565.500000, -9.000000, 400.500000, -564.000000, 970.820068, 359.432892, 121008
31.200001, -783.900024, 581.100037, -9.000000, 400.500000, -564.000000, 970.820068, 359.432892, 121019
23.400002, -799.500000, 577.200012, -9.000000, 400.500000, -564.000000, 970.856201, 359.029022, 121030
19.500000, -803.400024, 585.000000, -9.000000, 400.500000, -564.000000, 970.856201, 359.029022, 121041
31.200001, -791.700012, 585.000000, -9.000000, 400.500000, -564.000000, 970.879639, 358.827118, 121052
27.300001, -791.700012, 588.900024, -9.000000, 400.500000, -564.000000, 970.879639, 358.827118, 121063
23.400002, -780.000000, 581.100037, -9.000000, 400.500000, -564.000000, 970.879639, 358.827118, 121074
39.000000, -783.900024, 585.000000, -16.500000, 400.500000, -567.000000, 970.889893, 358.738098, 121085
39.000000, -799.500000, 592.799988, -16.500000, 400.500000, -567.000000, 970.889893, 358.738098, 121096
35.100002, -803.400024, 577.200012, -16.500000, 400.500000, -567.000000, 970.889893, 358.738098, 121107
27.300001, -795.600037, 588.900024, -16.500000, 400.500000, -567.000000, 970.889893, 358.738098, 121118
27.300001, -787.800049, 585.000000, -16.500000, 400.500000, -567.000000, 970.889893, 358.738098, 121129
19.500000, -807.300049, 577.200012, -16.500000, 400.500000, -567.000000, 970.826904, 358.538269, 121140
23.400002, -799.500000, 585.000000, -16.500000, 400.500000, -567.000000, 970.826904, 358.538269, 121151
39.000000, -807.300049, 596.700012, -16.500000, 400.500000, -567.000000, 970.826904, 358.538269, 121162
35.100002, -787.800049, 588.900024, -16.500000, 400.500000, -567.000000, 970.826904, 358.538269, 121173
35.100002, -799.500000, 585.000000, -4.500000, 397.500000, -562.500000, 970.826904, 358.538269, 121184
31.200001, -791.700012, 569.400024, -4.500000, 397.500000, -562.500000, 970.826904, 358.538269, 121195
23.400002, -787.800049, 577.200012, -4.500000, 397.500000, -562.500000, 970.939453, 358.504456, 121206
35.100002, -791.700012, 581.100037, -4.500000, 397.500000, -562.500000, 970.939453, 358.504456, 121217
31.200001, -783.900024, 581.100037, -4.500000, 397.500000, -562.500000, 970.887695, 358.757355, 121228
19.500000, -783.900024, 581.100037, -4.500000, 397.500000, -562.500000, 970.887695, 358.757355, 121239
39.000000, -807.300049, 596.700012, -4.500000, 397.500000, -562.500000, 970.887695, 358.757355, 121250
35.100002, -795.600037, 588.900024, -4.500000, 397.500000, -562.500000, 970.776855, 359.712402, 121261
27.300001, -791.700012, 573.299988, -4.500000, 397.500000, -562.500000, 970.776855, 359.712402, 121272
23.400002, -791.700012, 585.000000, 0.000000, 393.000000, -567.000000, 970.934082, 358.357697, 121283
31.200001, -787.800049, 577.200012, 0.000000, 393.000000, -567.000000, 970.934082, 358.357697, 121294
27.300001, -787.800049, 588.900024, 0.000000, 393.000000, -567.000000, 970.993408, 357.846130, 121305
27.300001, -791.700012, 577.200012, 0.000000, 393.000000, -567.000000, 970.993408, 357.846130, 121316
31.200001, -795.600037, 585.000000, 0.000000, 393.000000, -567.000000, 970.993408, 357.846130, 121327
39.000000, -795.600037, 592.799988, 0.000000, 393.000000, -567.000000, 970.993408, 357.846130, 121338
27.300001, -787.800049, 592.799988, 0.000000, 393.000000, -567.000000, 970.993408, 357.846130, 121349
19.500000, -791.700012, 569.400024, 0.000000, 393.000000, -567.000000, 970.993408, 357.846130, 121360
27.300001, -787.800049, 577.200012, -7.500000, 396.000000, -564.000000, 970.885010, 359.749878, 121371
39.000000, -787.800049, 569.400024, -7.500000, 396.000000, -564.000000, 970.885010, 359.749878, 121382
19.500000, -791.700012, 577.200012, -7.500000, 396.000000, -564.000000, 970.885010, 359.749878, 121393
31.200001, -799.500000, 585.000000, -7.500000, 396.000000, -564.000000, 970.885010, 359.749878, 121404
31.200001, -807.300049, 585.000000, -7.500000, 396.000000, -564.000000, 970.840332, 359.165405, 121415
35.100002, -799.500000, 573.299988, -7.500000, 396.000000, -564.000000, 970.840332, 359.165405, 121426
27.300001, -795.600037, 585.000000, -7.500000, 396.000000, -564.000000, 970.891113, 358.727692, 121437
23.400002, -807.300049, 573.299988, -7.500000, 396.000000, -564.000000, 970.891113, 358.727692, 121448
31.200001, -803.400024, 592.799988, -7.500000, 396.000000, -564.000000, 970.748535, 359.956512, 121459
23.400002, -811.200012, 573.299988, -7.500000, 396.000000, -564.000000, 970.748535, 359.956512, 121470
23.400002, -787.800049, 588.900024, -6.000000, 396.000000, -562.500000, 970.748535, 359.956512, 121481
31.200001, -776.100037, 604.500000, -6.000000, 396.000000, -562.500000, 970.877930, 358.841156, 121492
27.300001, -791.700012, 585.000000, -6.000000, 396.000000, -562.500000, 970.877930, 358.841156, 121503
27.300001, -795.600037, 600.600037, -6.000000, 396.000000, -562.500000, 970.877930, 358.841156, 121514
39.000000, -791.700012, 581.100037, -6.000000, 396.000000, -562.500000, 970.877930, 358.841156, 121525
35.100002, -795.600037, 581.100037, -6.000000, 396.000000, -562.500000, 970.877930, 358.841156, 121536
35.100002, -795.600037, 585.000000, -6.000000, 396.000000, -562.500000, 970.867676, 358.765686, 121547
27.300001, -799.500000, 577.200012, -6.000000, 396.000000, -562.500000, 970.867676, 358.765686, 121558
39.000000, -795.600037, 608.400024, -1.500000, 397.500000, -562.500000, 970.867676, 358.765686, 121569
27.300001, -791.700012, 585.000000, -1.500000, 397.500000, -562.500000, 970.867676, 358.765686, 121580
27.300001, -795.600037, 585.000000, -1.500000, 397.500000, -562.500000, 970.867676, 358.765686, 121591
23.400002, -803.400024, 588.900024, -1.500000, 397.500000, -562.500000, 970.833252, 358.218750, 121602
39.000000, -795.600037, 577.200012, -1.500000, 397.500000, -562.500000, 970.833252, 358.218750, 121613
19.500000, -791.700012, 585.000000, -1.500000, 397.500000, -562.500000, 970.833252, 358.218750, 121624
27.300001, -787.800049, 569.400024, -1.500000, 397.500000, -562.500000, 970.833252, 358.218750, 121635
46.800003, -799.500000, 585.000000, -1.500000, 397.500000, -562.500000, 970.833252, 358.218750, 121646
35.100002, -791.700012, 588.900024, -1.500000, 397.500000, -562.500000, 970.873535, 358.879150, 121657
27.300001, -791.700012, 573.299988, -4.500000, 402.000000, -559.500000, 970.873535, 358.879150, 121668
27.300001, -791.700012, 573.299988, -4.500000, 402.000000, -559.500000, 970.926514, 358.422729, 121679
27.300001, -780.000000, 585.000000, -4.500000, 402.000000, -559.500000, 970.926514, 358.422729, 121690
31.200001, -795.600037, 577.200012, -4.500000, 402.000000, -559.500000, 970.758789, 359.868530, 121701
23.400002, -787.800049, 585.000000, -4.500000, 402.000000, -559.500000, 970.758789, 359.868530, 121712
35.100002, -795.600037, 577.200012, -4.500000, 402.000000, -559.500000, 970.758789, 359.868530, 121723
31.200001, -791.700012, 577.200012, -4.500000, 402.000000, -559.500000, 970.881836, 358.807343, 121734
23.400002, -795.600037, 569.400024, -4.500000, 402.000000, -559.500000, 970.881836, 358.807343, 121745
19.500000, -799.500000, 588.900024, -4.500000, 402.000000, -559.500000, 970.881836, 358.807343, 121756
11.700001, -783.900024, 592.799988, -3.000000, 394.500000, -564.000000, 970.881836, 358.807343, 121767
35.100002, -791.700012, 588.900024, -3.000000, 394.500000, -564.000000, 970.881836, 358.807343, 121778
39.000000, -791.700012, 592.799988, -3.000000, 394.500000, -564.000000, 970.803223, 358.534119, 121789
31.200001, -787.800049, 588.900024, -3.000000, 394.500000, -564.000000, 970.803223, 358.534119, 121800
35.100002, -799.500000, 585.000000, -3.000000, 394.500000, -564.000000, 970.803223, 358.534119, 121811
39.000000, -795.600037, 592.799988, -3.000000, 394.500000, -564.000000, 970.803223, 358.534119, 121822
15.600000, -803.400024, 588.900024, -3.000000, 394.500000, -564.000000, 970.803223, 358.534119, 121833
27.300001, -787.800049, 600.600037, -3.000000, 394.500000, -564.000000, 970.962402, 358.498199, 121844
31.200001, -783.900024, 581.100037, -3.000000, 394.500000, -564.000000, 970.962402, 358.498199, 121855
23.400002, -795.600037, 592.799988, -16.500000, 396.000000, -570.000000, 970.962402, 358.498199, 121866
31.200001, -799.500000, 585.000000, -16.500000, 396.000000, -570.000000, 970.962402, 358.498199, 121877
39.000000, -795.600037, 577.200012, -16.500000, 396.000000, -570.000000, 970.962402, 358.498199, 121888
39.000000, -795.600037, 596.700012, -16.500000, 396.000000, -570.000000, 970.962402, 358.498199, 121899
35.100002, -791.700012, 592.799988, -16.500000, 396.000000, -570.000000, 970.915771, 358.788605, 121910
27.300001, -787.800049, 588.900024, -16.500000, 396.000000, -570.000000, 970.915771, 358.788605, 121921
27.300001, -791.700012, 585.000000, -16.500000, 396.000000, -570.000000, 970.915771, 358.788605, 121932
31.200001, -791.700012, 588.900024, -16.500000, 396.000000, -570.000000, 970.915771, 358.788605, 121943
31.200001, -783.900024, 577.200012, 0.000000, 402.000000, -561.000000, 970.887939, 358.367584, 121954
31.200001, -799.500000, 585.000000, 0.000000, 402.000000, -561.000000, 970.887939, 358.367584, 121965
23.400002, -807.300049, 592.799988, 0.000000, 402.000000, -561.000000, 970.949463, 358.224976, 121976
19.500000, -795.600037, 577.200012, 0.000000, 402.000000, -561.000000, 970.949463, 358.224976, 121987
23.400002, -787.800049, 581.100037, 0.000000, 402.000000, -561.000000, 970.949463, 358.224976, 121998
35.100002, -783.900024, 592.799988, 0.000000, 402.000000, -561.000000, 970.854004, 359.047760, 122009
27.300001, -791.700012, 585.000000, 0.000000, 402.000000, -561.000000, 970.854004, 359.047760, 122020
27.300001, -795.600037, 588.900024, 0.000000, 402.000000, -561.000000, 970.913574, 358.534119, 122031
23.400002, -783.900024, 581.100037, 0.000000, 402.000000, -561.000000, 970.913574, 358.534119, 122042
35.100002, -803.400024, 592.799988, 0.000000, 402.000000, -561.000000, 970.913574, 358.534119, 122053
15.600000, -795.600037, 577.200012, -4.500000, 399.000000, -561.000000, 970.913574, 358.534119, 122064
27.300001, -791.700012, 588.900024, -4.500000, 399.000000, -561.000000, 970.913574, 358.534119, 122075
31.200001, -803.400024, 585.000000, -4.500000, 399.000000, -561.000000, 970.913574, 358.534119, 122086
31.200001, -795.600037, 585.000000, -4.500000, 399.000000, -561.000000, 970.858154, 358.298370, 122097
27.300001, -791.700012, 596.700012, -4.500000, 399.000000, -561.000000, 970.858154, 358.298370, 122108
39.000000, -803.400024, 600.600037, -4.500000, 399.000000, -561.000000, 970.858154, 358.298370, 122119
27.300001, -795.600037, 588.900024, -4.500000, 399.000000, -561.000000, 970.858154, 358.298370, 122130
23.400002, -787.800049, 600.600037, -4.500000, 399.000000, -561.000000, 970.858154, 358.298370, 122141
27.300001, -807.300049, 577.200012, -12.000000, 393.000000, -567.000000, 970.876221, 358.479462, 122152
35.100002, -803.400024, 585.000000, -12.000000, 393.000000, -567.000000, 970.876221, 358.479462, 122163
42.900002, -799.500000, 585.000000, -12.000000, 393.000000, -567.000000, 970.876221, 358.479462, 122174
27.300001, -787.800049, 596.700012, -12.000000, 393.000000, -567.000000, 970.876221, 358.479462, 122185
35.100002, -803.400024, 588.900024, -12.000000, 393.000000, -567.000000, 970.876221, 358.479462, 122196
35.100002, -795.600037, 585.000000, -12.000000, 393.000000, -567.000000, 970.929199, 358.908295, 122207
27.300001, -807.300049, 592.799988, -12.000000, 393.000000, -567.000000, 970.929199, 358.908295, 122218
27.300001, -795.600037, 585.000000, -12.000000, 393.000000, -567.000000, 970.929199, 358.908295, 122229
23.400002, -807.300049, 569.400024, -12.000000, 393.000000, -567.000000, 970.929199, 358.908295, 122240
31.200001, -795.600037, 581.100037, -10.500000, 396.000000, -564.000000, 970.929199, 358.908295, 122251
39.000000, -791.700012, 577.200012, -10.500000, 396.000000, -564.000000, 970.854980, 359.577606, 122262
35.100002, -791.700012, 577.200012, -10.500000, 396.000000, -564.000000, 970.854980, 359.577606, 122273
35.100002, -791.700012, 577.200012, -10.500000, 396.000000, -564.000000, 970.915771, 358.515381, 122284
39.000000, -799.500000, 585.000000, -10.500000, 396.000000, -564.000000, 970.915771, 358.515381, 122295
27.300001, -803.400024, 592.799988, -10.500000, 396.000000, -564.000000, 970.862549, 358.973877, 122306
23.400002, -791.700012, 585.000000, -10.500000, 396.000000, -564.000000, 970.862549, 358.973877, 122317
23.400002, -783.900024, 585.000000, -10.500000, 396.000000, -564.000000, 970.862549, 358.973877, 122328
31.200001, -791.700012, 581.100037, -10.500000, 396.000000, -564.000000, 970.873047, 358.883301, 122339
39.000000, -783.900024, 577.200012, -9.000000, 402.000000, -568.500000, 970.873047, 358.883301, 122350
35.100002, -799.500000, 588.900024, -9.000000, 402.000000, -568.500000, 970.873047, 358.883301, 122361
27.300001, -799.500000, 585.000000, -9.000000, 402.000000, -568.500000, 970.873047, 358.883301, 122372
15.600000, -783.900024, 596.700012, -9.000000, 402.000000, -568.500000, 970.873047, 358.883301, 122383
31.200001, -787.800049, 588.900024, -9.000000, 402.000000, -568.500000, 970.898193, 359.085236, 122394
27.300001, -795.600037, 592.799988, -9.000000, 402.000000, -568.500000, 970.898193, 359.085236, 122405
23.400002, -791.700012, 588.900024, -9.000000, 402.000000, -568.500000, 970.898193, 359.085236, 122416
19.500000, -787.800049, 581.100037, -9.000000, 402.000000, -568.500000, 970.898193, 359.085236, 122427
27.300001, -815.100037, 565.500000, -9.000000, 408.000000, -568.500000, 970.898193, 359.085236, 122438
39.000000, -807.300049, 577.200012, -15.000000, 408.000000, -568.500000, 970.910645, 358.008514, 122449
19.500000, -807.300049, 588.900024, -15.000000, 408.000000, -568.500000, 970.910645, 358.008514, 122460
15.600000, -791.700012, 592.799988, -15.000000, 408.000000, -568.500000, 970.910645, 358.008514, 122471
23.400002, -799.500000, 585.000000, -15.000000, 408.000000, -568.500000, 970.883301, 358.795349, 122482
