accelX,accelY,accelZ,timestamp
-117.200005,93.760002,949.320007,431218
-105.480003,93.760002,972.76001,431222
-105.480003,93.760002,961.040039,431226
-105.480003,70.32,949.320007,431230
-105.480003,93.760002,949.320007,431234
-93.760002,82.040001,961.040039,431238
-105.480003,35.16,949.320007,431242
-93.760002,70.32,961.040039,431246
-117.200005,58.600002,949.320007,431250
-140.639999,70.32,937.600037,431254
-117.200005,70.32,949.320007,431258
-117.200005,58.600002,961.040039,431262
-117.200005,58.600002,949.320007,431266
-105.480003,70.32,961.040039,431270
-105.480003,58.600002,961.040039,431274
-105.480003,58.600002,961.040039,431278
-117.200005,70.32,961.040039,431282
-117.200005,58.600002,949.320007,431286
-128.919998,70.32,996.200012,431290
-117.200005,82.040001,984.480042,431294
-117.200005,82.040001,961.040039,431298
-105.480003,58.600002,984.480042,431302
-93.760002,93.760002,972.76001,431306
-93.760002,82.040001,961.040039,431310
-105.480003,93.760002,949.320007,431314
-93.760002,93.760002,949.320007,431318
-93.760002,70.32,961.040039,431322
-128.919998,82.040001,949.320007,431326
-93.760002,93.760002,961.040039,431330
-105.480003,93.760002,961.040039,431334
-117.200005,70.32,984.480042,431338
-128.919998,82.040001,984.480042,431342
-105.480003,117.200005,961.040039,431346
-105.480003,82.040001,961.040039,431350
-117.200005,70.32,949.320007,431354
-128.919998,70.32,961.040039,431358
-105.480003,58.600002,961.040039,431362
-105.480003,82.040001,949.320007,431366
-93.760002,82.040001,949.320007,431370
-93.760002,93.760002,937.600037,431374
-105.480003,93.760002,937.600037,431378
-105.480003,58.600002,937.600037,431382
-117.200005,82.040001,949.320007,431386
-117.200005,93.760002,961.040039,431390
-117.200005,58.600002,949.320007,431394
-128.919998,82.040001,972.76001,431398
-152.360001,82.040001,961.040039,431402
-140.639999,82.040001,949.320007,431406
-117.200005,70.32,961.040039,431410
-105.480003,93.760002,949.320007,431414
-117.200005,58.600002,961.040039,431418
-117.200005,70.32,949.320007,431422
-105.480003,82.040001,949.320007,431426
-117.200005,58.600002,961.040039,431430
-117.200005,70.32,949.320007,431434
-117.200005,82.040001,949.320007,431438
-117.200005,117.200005,949.320007,431442
-117.200005,93.760002,949.320007,431446
-117.200005,46.880001,949.320007,431450
-105.480003,70.32,949.320007,431454
-117.200005,58.600002,961.040039,431458
-117.200005,82.040001,949.320007,431462
-93.760002,70.32,961.040039,431466
-105.480003,70.32,961.040039,431470
-93.760002,70.32,984.480042,431474
-105.480003,58.600002,949.320007,431478
-105.480003,70.32,972.76001,431482
-128.919998,70.32,961.040039,431486
-105.480003,58.600002,949.320007,431490
-117.200005,82.040001,961.040039,431494
-128.919998,70.32,949.320007,431498
-117.200005,46.880001,949.320007,431502
-105.480003,70.32,925.880005,431506
-105.480003,58.600002,949.320007,431510
-105.480003,58.600002,961.040039,431514
-105.480003,70.32,961.040039,431518
-93.760002,105.480003,949.320007,431522
-105.480003,105.480003,949.320007,431526
-105.480003,70.32,961.040039,431530
-105.480003,70.32,972.76001,431534
-93.760002,82.040001,949.320007,431538
-128.919998,70.32,949.320007,431542
-117.200005,58.600002,961.040039,431546
-105.480003,70.32,961.040039,431550
-93.760002,58.600002,949.320007,431554
-105.480003,82.040001,961.040039,431558
-117.200005,58.600002,961.040039,431562
-105.480003,70.32,949.320007,431566
-117.200005,58.600002,972.76001,431570
-105.480003,82.040001,972.76001,431574
-105.480003,82.040001,961.040039,431578
-105.480003,128.919998,961.040039,431582
-117.200005,93.760002,949.320007,431586
-105.480003,82.040001,937.600037,431590
-105.480003,70.32,937.600037,431594
-117.200005,82.040001,972.76001,431598
-117.200005,70.32,961.040039,431602
-105.480003,93.760002,949.320007,431606
-117.200005,58.600002,949.320007,431610
-117.200005,82.040001,961.040039,431614
-117.200005,58.600002,949.320007,431618
-117.200005,93.760002,949.320007,431622
-128.919998,58.600002,961.040039,431626
-128.919998,82.040001,937.600037,431630
-117.200005,82.040001,949.320007,431634
-117.200005,105.480003,961.040039,431638
-117.200005,46.880001,937.600037,431642
-117.200005,58.600002,949.320007,431646
-105.480003,82.040001,949.320007,431650
-105.480003,70.32,961.040039,431654
-93.760002,70.32,972.76001,431658
-105.480003,70.32,972.76001,431662
-117.200005,82.040001,984.480042,431666
-117.200005,93.760002,949.320007,431670
-140.639999,35.16,961.040039,431674
-140.639999,46.880001,949.320007,431678
-140.639999,82.040001,961.040039,431682
-128.919998,70.32,949.320007,431686
-105.480003,58.600002,949.320007,431690
-105.480003,82.040001,949.320007,431694
-105.480003,82.040001,961.040039,431698
-105.480003,70.32,949.320007,431702
-117.200005,70.32,949.320007,431706
-128.919998,93.760002,949.320007,431710
-117.200005,105.480003,949.320007,431714
-117.200005,70.32,972.76001,431718
-105.480003,58.600002,972.76001,431722
-93.760002,82.040001,972.76001,431726
-105.480003,82.040001,972.76001,431730
-105.480003,70.32,972.76001,431734
-105.480003,70.32,972.76001,431738
-117.200005,82.040001,972.76001,431742
-105.480003,105.480003,949.320007,431746
-105.480003,82.040001,972.76001,431750
-93.760002,58.600002,949.320007,431754
-105.480003,58.600002,949.320007,431758
-105.480003,93.760002,972.76001,431762
-105.480003,105.480003,949.320007,431766
-93.760002,93.760002,961.040039,431770
-93.760002,82.040001,949.320007,431774
-93.760002,105.480003,949.320007,431778
-117.200005,82.040001,937.600037,431782
-117.200005,93.760002,937.600037,431786
-93.760002,82.040001,937.600037,431790
-105.480003,82.040001,949.320007,431794
-93.760002,70.32,949.320007,431798
-93.760002,70.32,972.76001,431802
-93.760002,46.880001,961.040039,431806
-105.480003,70.32,949.320007,431810
-105.480003,82.040001,961.040039,431814
-128.919998,70.32,972.76001,431818
-140.639999,46.880001,949.320007,431822
-128.919998,58.600002,949.320007,431826
-93.760002,58.600002,972.76001,431830
-105.480003,58.600002,972.76001,431834
-93.760002,82.040001,961.040039,431838
-105.480003,70.32,949.320007,431842
-117.200005,70.32,961.040039,431846
-117.200005,93.760002,972.76001,431850
-128.919998,82.040001,972.76001,431854
-105.480003,70.32,961.040039,431858
-117.200005,105.480003,961.040039,431862
-128.919998,93.760002,961.040039,431866
-105.480003,70.32,949.320007,431870
-105.480003,58.600002,949.320007,431874
-105.480003,82.040001,949.320007,431878
-105.480003,70.32,937.600037,431882
-93.760002,70.32,937.600037,431886
-117.200005,46.880001,949.320007,431890
-105.480003,58.600002,961.040039,431894
-93.760002,70.32,949.320007,431898
-93.760002,70.32,961.040039,431902
-105.480003,93.760002,949.320007,431906
-105.480003,82.040001,961.040039,431910
-117.200005,105.480003,961.040039,431914
-140.639999,93.760002,949.320007,431918
-105.480003,70.32,972.76001,431922
-93.760002,70.32,961.040039,431926
-82.040001,58.600002,972.76001,431930
-93.760002,58.600002,972.76001,431934
-105.480003,70.32,961.040039,431938
-117.200005,70.32,961.040039,431942
-117.200005,70.32,949.320007,431946
-117.200005,117.200005,961.040039,431950
-105.480003,105.480003,961.040039,431954
-105.480003,117.200005,972.76001,431958
-117.200005,82.040001,949.320007,431962
-140.639999,82.040001,949.320007,431966
-93.760002,58.600002,961.040039,431970
-105.480003,58.600002,949.320007,431974
-105.480003,70.32,949.320007,431978
-105.480003,93.760002,949.320007,431982
-93.760002,70.32,937.600037,431986
-93.760002,70.32,937.600037,431990
-105.480003,93.760002,937.600037,431994
-105.480003,70.32,937.600037,431998
-93.760002,46.880001,949.320007,432002
-117.200005,58.600002,961.040039,432006
-105.480003,70.32,949.320007,432010
-105.480003,82.040001,949.320007,432014
-93.760002,117.200005,961.040039,432018
-117.200005,105.480003,961.040039,432022
-93.760002,93.760002,961.040039,432026
-105.480003,82.040001,949.320007,432030
-117.200005,70.32,949.320007,432034
-128.919998,58.600002,972.76001,432038
-117.200005,82.040001,972.76001,432042
-105.480003,82.040001,961.040039,432046
-128.919998,70.32,949.320007,432050
-128.919998,70.32,961.040039,432054
-117.200005,82.040001,949.320007,432058
-105.480003,93.760002,961.040039,432062
-105.480003,82.040001,949.320007,432066
-105.480003,82.040001,972.76001,432070
-93.760002,58.600002,961.040039,432074
-105.480003,70.32,961.040039,432078
-105.480003,82.040001,949.320007,432082
-105.480003,70.32,937.600037,432086
-93.760002,93.760002,949.320007,432090
-93.760002,93.760002,949.320007,432094
-117.200005,105.480003,972.76001,432098
-105.480003,70.32,961.040039,432102
-105.480003,35.16,949.320007,432106
-117.200005,82.040001,961.040039,432110
-117.200005,105.480003,949.320007,432114
-117.200005,82.040001,972.76001,432118
-140.639999,93.760002,961.040039,432122
-105.480003,93.760002,949.320007,432126
-117.200005,70.32,961.040039,432130
-105.480003,93.760002,961.040039,432134
-93.760002,93.760002,961.040039,432138
-93.760002,46.880001,949.320007,432142
-105.480003,93.760002,961.040039,432146
-93.760002,82.040001,961.040039,432150
-105.480003,35.16,949.320007,432154
-105.480003,46.880001,972.76001,432158
-105.480003,58.600002,961.040039,432162
-105.480003,82.040001,937.600037,432166
-128.919998,70.32,937.600037,432170
-117.200005,58.600002,937.600037,432174
-105.480003,93.760002,937.600037,432178
-117.200005,93.760002,972.76001,432182
-128.919998,93.760002,961.040039,432186
-105.480003,58.600002,972.76001,432190
-93.760002,82.040001,949.320007,432194
-93.760002,93.760002,949.320007,432198
-117.200005,46.880001,972.76001,432202
-105.480003,58.600002,972.76001,432206
-105.480003,70.32,984.480042,432210
-93.760002,70.32,949.320007,432214
-117.200005,58.600002,949.320007,432218
-105.480003,70.32,949.320007,432222
-105.480003,82.040001,961.040039,432226
-93.760002,93.760002,937.600037,432230
-117.200005,70.32,937.600037,432234
-117.200005,82.040001,961.040039,432238
-117.200005,70.32,961.040039,432242
-117.200005,82.040001,961.040039,432246
-105.480003,46.880001,961.040039,432250
-93.760002,58.600002,949.320007,432254
-105.480003,82.040001,961.040039,432258
-117.200005,70.32,949.320007,432262
-128.919998,58.600002,949.320007,432266
-117.200005,82.040001,972.76001,432270
-128.919998,82.040001,949.320007,432274
-117.200005,82.040001,949.320007,432278
-105.480003,82.040001,961.040039,432282
-128.919998,82.040001,961.040039,432286
-105.480003,82.040001,949.320007,432290
-105.480003,82.040001,972.76001,432294
-93.760002,58.600002,949.320007,432298
-93.760002,82.040001,949.320007,432302
-117.200005,70.32,949.320007,432306
-105.480003,105.480003,961.040039,432310
-105.480003,70.32,984.480042,432314
-93.760002,93.760002,961.040039,432318
-128.919998,70.32,949.320007,432322
-128.919998,70.32,961.040039,432326
-117.200005,70.32,949.320007,432330
-128.919998,70.32,949.320007,432334
-128.919998,46.880001,984.480042,432338
-117.200005,93.760002,949.320007,432342
-105.480003,105.480003,961.040039,432346
-117.200005,82.040001,961.040039,432350
-105.480003,58.600002,961.040039,432354
-93.760002,82.040001,949.320007,432358
-93.760002,93.760002,972.76001,432362
-82.040001,105.480003,961.040039,432366
-82.040001,82.040001,961.040039,432370
-105.480003,105.480003,949.320007,432374
-93.760002,105.480003,949.320007,432378
-105.480003,93.760002,949.320007,432382
-105.480003,82.040001,949.320007,432386
-105.480003,70.32,961.040039,432390
-105.480003,93.760002,949.320007,432394
-117.200005,82.040001,972.76001,432398
-128.919998,82.040001,972.76001,432402
-117.200005,93.760002,961.040039,432406
-105.480003,70.32,961.040039,432410
-117.200005,70.32,972.76001,432414
-117.200005,46.880001,972.76001,432418
-117.200005,70.32,972.76001,432422
-105.480003,82.040001,961.040039,432426
-105.480003,70.32,972.76001,432430
-117.200005,105.480003,949.320007,432434
-128.919998,82.040001,949.320007,432438
-105.480003,70.32,972.76001,432442
-105.480003,70.32,961.040039,432446
-117.200005,58.600002,961.040039,432450
-105.480003,46.880001,949.320007,432454
-93.760002,35.16,949.320007,432458
-117.200005,82.040001,961.040039,432462
-117.200005,82.040001,961.040039,432466
-105.480003,82.040001,949.320007,432470
-128.919998,93.760002,961.040039,432474
-117.200005,93.760002,972.76001,432478
-105.480003,58.600002,949.320007,432482
-93.760002,58.600002,949.320007,432486
-105.480003,82.040001,937.600037,432490
-105.480003,105.480003,949.320007,432494
-93.760002,105.480003,972.76001,432498
-93.760002,117.200005,984.480042,432502
-105.480003,93.760002,949.320007,432506
-105.480003,105.480003,972.76001,432510
-105.480003,93.760002,961.040039,432514
-93.760002,70.32,972.76001,432518
-93.760002,93.760002,961.040039,432522
-105.480003,82.040001,949.320007,432526
-93.760002,93.760002,961.040039,432530
-105.480003,93.760002,949.320007,432534
-117.200005,58.600002,961.040039,432538
-117.200005,82.040001,949.320007,432542
-105.480003,58.600002,961.040039,432546
-128.919998,70.32,949.320007,432550
-117.200005,70.32,961.040039,432554
-128.919998,93.760002,961.040039,432558
-105.480003,82.040001,949.320007,432562
-105.480003,93.760002,961.040039,432566
-105.480003,82.040001,949.320007,432570
-82.040001,93.760002,984.480042,432574
-117.200005,82.040001,972.76001,432578
-128.919998,82.040001,961.040039,432582
-117.200005,93.760002,937.600037,432586
-128.919998,58.600002,902.440002,432590
-117.200005,70.32,925.880005,432594
-128.919998,82.040001,961.040039,432598
-105.480003,82.040001,949.320007,432602
-128.919998,82.040001,961.040039,432606
-117.200005,58.600002,961.040039,432610
-128.919998,70.32,972.76001,432614
-117.200005,46.880001,972.76001,432618
-117.200005,58.600002,972.76001,432622
-117.200005,82.040001,937.600037,432626
-93.760002,105.480003,937.600037,432630
-117.200005,117.200005,949.320007,432634
-93.760002,93.760002,937.600037,432638
-93.760002,58.600002,937.600037,432642
-117.200005,58.600002,961.040039,432646
-117.200005,93.760002,972.76001,432650
-105.480003,82.040001,972.76001,432654
-117.200005,70.32,972.76001,432658
-105.480003,58.600002,961.040039,432662
-117.200005,82.040001,961.040039,432666
-117.200005,93.760002,949.320007,432670
-105.480003,93.760002,972.76001,432674
-93.760002,58.600002,961.040039,432678
-105.480003,82.040001,961.040039,432682
-93.760002,70.32,961.040039,432686
-93.760002,70.32,949.320007,432690
-105.480003,70.32,949.320007,432694
-128.919998,58.600002,949.320007,432698
-117.200005,82.040001,937.600037,432702
-128.919998,58.600002,937.600037,432706
-117.200005,82.040001,949.320007,432710
-105.480003,82.040001,949.320007,432714
-105.480003,105.480003,949.320007,432718
-105.480003,70.32,949.320007,432722
-93.760002,58.600002,949.320007,432726
-93.760002,70.32,961.040039,432730
-105.480003,93.760002,949.320007,432734
-93.760002,82.040001,961.040039,432738
-117.200005,46.880001,961.040039,432742
-117.200005,46.880001,949.320007,432746
-117.200005,58.600002,949.320007,432750
-105.480003,70.32,949.320007,432754
-128.919998,70.32,949.320007,432758
-117.200005,70.32,961.040039,432762
-117.200005,93.760002,961.040039,432766
-82.040001,82.040001,949.320007,432770
-93.760002,82.040001,961.040039,432774
-117.200005,58.600002,949.320007,432778
-105.480003,82.040001,949.320007,432782
-140.639999,70.32,925.880005,432786
-117.200005,70.32,937.600037,432790
-128.919998,46.880001,937.600037,432794
-117.200005,93.760002,961.040039,432798
-105.480003,93.760002,972.76001,432802
-105.480003,82.040001,972.76001,432806
-93.760002,93.760002,972.76001,432810
-105.480003,82.040001,961.040039,432814
-93.760002,82.040001,949.320007,432818
-117.200005,70.32,961.040039,432822
-105.480003,82.040001,949.320007,432826
-117.200005,70.32,949.320007,432830
-105.480003,46.880001,984.480042,432834
-105.480003,58.600002,949.320007,432838
-93.760002,93.760002,961.040039,432842
-93.760002,93.760002,961.040039,432846
-117.200005,82.040001,937.600037,432850
-105.480003,105.480003,949.320007,432854
-93.760002,93.760002,949.320007,432858
-105.480003,93.760002,949.320007,432862
-93.760002,70.32,949.320007,432866
-117.200005,93.760002,972.76001,432870
-128.919998,82.040001,972.76001,432874
-117.200005,82.040001,972.76001,432878
-128.919998,82.040001,972.76001,432882
-105.480003,93.760002,949.320007,432886
-117.200005,70.32,949.320007,432890
-105.480003,82.040001,972.76001,432894
-105.480003,93.760002,961.040039,432898
-93.760002,82.040001,961.040039,432902
-117.200005,93.760002,961.040039,432906
-105.480003,117.200005,937.600037,432910
-105.480003,82.040001,949.320007,432914
-117.200005,70.32,949.320007,432918
-117.200005,58.600002,949.320007,432922
-117.200005,82.040001,961.040039,432926
-117.200005,93.760002,949.320007,432930
-117.200005,46.880001,949.320007,432934
-117.200005,35.16,949.320007,432938
-117.200005,70.32,972.76001,432942
-105.480003,82.040001,961.040039,432946
-93.760002,70.32,961.040039,432950
-93.760002,70.32,972.76001,432954
-105.480003,58.600002,961.040039,432958
-93.760002,58.600002,961.040039,432962
-105.480003,82.040001,949.320007,432966
-128.919998,58.600002,961.040039,432970
-117.200005,93.760002,949.320007,432974
-117.200005,93.760002,949.320007,432978
-93.760002,70.32,961.040039,432982
-117.200005,82.040001,949.320007,432986
-117.200005,93.760002,937.600037,432990
-128.919998,82.040001,949.320007,432994
-105.480003,58.600002,949.320007,432998
-128.919998,82.040001,949.320007,433002
-105.480003,93.760002,961.040039,433006
-105.480003,70.32,949.320007,433010
-105.480003,93.760002,984.480042,433014
-105.480003,93.760002,961.040039,433018
-105.480003,70.32,949.320007,433022
-105.480003,82.040001,961.040039,433026
-128.919998,70.32,961.040039,433030
-117.200005,82.040001,949.320007,433034
-93.760002,58.600002,949.320007,433038
-93.760002,70.32,949.320007,433042
-105.480003,70.32,949.320007,433046
-117.200005,93.760002,961.040039,433050
-105.480003,58.600002,961.040039,433054
-105.480003,58.600002,961.040039,433058
-105.480003,70.32,949.320007,433062
-117.200005,70.32,937.600037,433066
-117.200005,82.040001,949.320007,433070
-117.200005,93.760002,949.320007,433074
-105.480003,105.480003,961.040039,433078
-128.919998,82.040001,949.320007,433082
-117.200005,70.32,949.320007,433086
-117.200005,46.880001,972.76001,433090
-140.639999,82.040001,984.480042,433094
-140.639999,70.32,972.76001,433098
-105.480003,105.480003,961.040039,433102
-93.760002,46.880001,949.320007,433106
-105.480003,70.32,961.040039,433110
-105.480003,58.600002,949.320007,433114
-93.760002,117.200005,961.040039,433118
-105.480003,93.760002,961.040039,433122
-105.480003,82.040001,937.600037,433126
-105.480003,70.32,937.600037,433130
-117.200005,58.600002,949.320007,433134
-105.480003,117.200005,949.320007,433138
-93.760002,93.760002,949.320007,433142
-128.919998,93.760002,972.76001,433146
-105.480003,82.040001,961.040039,433150
-93.760002,82.040001,961.040039,433154
-105.480003,82.040001,961.040039,433158
-105.480003,105.480003,961.040039,433162
-93.760002,82.040001,961.040039,433166
-128.919998,70.32,961.040039,433170
-117.200005,93.760002,961.040039,433174
-105.480003,70.32,961.040039,433178
-93.760002,82.040001,961.040039,433182
-117.200005,82.040001,961.040039,433186
-105.480003,82.040001,961.040039,433190
-105.480003,82.040001,972.76001,433194
-93.760002,93.760002,972.76001,433198
-105.480003,93.760002,972.76001,433202
-117.200005,70.32,949.320007,433206
-128.919998,70.32,949.320007,433210
-117.200005,58.600002,961.040039,433214
-105.480003,46.880001,972.76001,433218
-117.200005,70.32,937.600037,433222
-105.480003,70.32,961.040039,433226
-93.760002,70.32,949.320007,433230
-105.480003,82.040001,961.040039,433234
-93.760002,82.040001,961.040039,433238
-105.480003,105.480003,961.040039,433242
-105.480003,93.760002,961.040039,433246
-117.200005,58.600002,949.320007,433250
-105.480003,82.040001,972.76001,433254
-105.480003,70.32,972.76001,433258
-105.480003,58.600002,949.320007,433262
-105.480003,58.600002,961.040039,433266
-105.480003,70.32,949.320007,433270
-93.760002,82.040001,949.320007,433274
-105.480003,58.600002,949.320007,433278
-117.200005,70.32,937.600037,433282
-105.480003,58.600002,949.320007,433286
-105.480003,93.760002,949.320007,433290
-105.480003,82.040001,949.320007,433294
-93.760002,70.32,937.600037,433298
-117.200005,70.32,937.600037,433302
-128.919998,82.040001,925.880005,433306
-105.480003,82.040001,961.040039,433310
-117.200005,58.600002,949.320007,433314
-105.480003,93.760002,949.320007,433318
-105.480003,93.760002,949.320007,433322
-105.480003,93.760002,961.040039,433326
-93.760002,70.32,961.040039,433330
-105.480003,46.880001,961.040039,433334
-117.200005,58.600002,949.320007,433338
-93.760002,70.32,961.040039,433342
-105.480003,70.32,949.320007,433346
-93.760002,70.32,949.320007,433350
-105.480003,93.760002,937.600037,433354
-128.919998,70.32,925.880005,433358
-105.480003,58.600002,961.040039,433362
-105.480003,82.040001,949.320007,433366
-93.760002,70.32,961.040039,433370
-93.760002,105.480003,949.320007,433374
-93.760002,70.32,949.320007,433378
-93.760002,70.32,961.040039,433382
-93.760002,70.32,961.040039,433386
-93.760002,82.040001,961.040039,433390
-117.200005,82.040001,961.040039,433394
-140.639999,70.32,949.320007,433398
-128.919998,46.880001,937.600037,433402
-117.200005,58.600002,949.320007,433406
-105.480003,105.480003,949.320007,433410
-93.760002,70.32,949.320007,433414
-93.760002,58.600002,961.040039,433418
-93.760002,82.040001,961.040039,433422
-93.760002,58.600002,972.76001,433426
-93.760002,82.040001,961.040039,433430
-117.200005,82.040001,961.040039,433434
-93.760002,82.040001,949.320007,433438
-93.760002,82.040001,949.320007,433442
-105.480003,70.32,972.76001,433446
-128.919998,70.32,949.320007,433450
-105.480003,70.32,961.040039,433454
-93.760002,70.32,949.320007,433458
-105.480003,70.32,961.040039,433462
-117.200005,70.32,972.76001,433466
-105.480003,70.32,961.040039,433470
-105.480003,82.040001,949.320007,433474
-82.040001,58.600002,949.320007,433478
-82.040001,70.32,949.320007,433482
-105.480003,82.040001,961.040039,433486
-105.480003,58.600002,961.040039,433490
-105.480003,58.600002,949.320007,433494
-117.200005,58.600002,961.040039,433498
-105.480003,58.600002,961.040039,433502
-140.639999,70.32,949.320007,433506
-117.200005,82.040001,937.600037,433510
-128.919998,93.760002,949.320007,433514
-93.760002,93.760002,949.320007,433518
-117.200005,82.040001,961.040039,433522
-117.200005,58.600002,961.040039,433526
-105.480003,58.600002,949.320007,433530
-105.480003,82.040001,984.480042,433534
-93.760002,70.32,972.76001,433538
-93.760002,58.600002,972.76001,433542
-105.480003,105.480003,949.320007,433546
-117.200005,82.040001,949.320007,433550
-117.200005,82.040001,949.320007,433554
-105.480003,70.32,961.040039,433558
-105.480003,70.32,949.320007,433562
-105.480003,70.32,972.76001,433566
-117.200005,46.880001,961.040039,433570
-117.200005,70.32,961.040039,433574
-105.480003,70.32,949.320007,433578
-128.919998,58.600002,937.600037,433582
-93.760002,82.040001,949.320007,433586
-105.480003,70.32,961.040039,433590
-117.200005,82.040001,949.320007,433594
-128.919998,82.040001,937.600037,433598
-117.200005,58.600002,949.320007,433602
-128.919998,70.32,961.040039,433606
-128.919998,82.040001,949.320007,433610
-128.919998,105.480003,972.76001,433614
-128.919998,105.480003,961.040039,433618
-105.480003,70.32,961.040039,433622
-93.760002,82.040001,961.040039,433626
-105.480003,70.32,961.040039,433630
-105.480003,58.600002,961.040039,433634
-117.200005,93.760002,949.320007,433638
-105.480003,82.040001,972.76001,433642
-93.760002,93.760002,972.76001,433646
-105.480003,70.32,972.76001,433650
-105.480003,105.480003,949.320007,433654
-105.480003,82.040001,972.76001,433658
-93.760002,117.200005,972.76001,433662
-105.480003,117.200005,961.040039,433666
-93.760002,93.760002,949.320007,433670
-140.639999,117.200005,937.600037,433674
-105.480003,82.040001,949.320007,433678
-93.760002,70.32,949.320007,433682
-128.919998,70.32,949.320007,433686
-128.919998,82.040001,972.76001,433690
-105.480003,58.600002,961.040039,433694
-93.760002,70.32,949.320007,433698
-93.760002,70.32,961.040039,433702
-105.480003,70.32,949.320007,433706
-93.760002,70.32,961.040039,433710
-117.200005,70.32,972.76001,433714
-117.200005,70.32,961.040039,433718
-117.200005,58.600002,961.040039,433722
-105.480003,70.32,949.320007,433726
-93.760002,58.600002,961.040039,433730
-117.200005,58.600002,949.320007,433734
-117.200005,82.040001,949.320007,433738
-105.480003,105.480003,961.040039,433742
-93.760002,82.040001,937.600037,433746
-105.480003,105.480003,961.040039,433750
-117.200005,70.32,949.320007,433754
-105.480003,70.32,961.040039,433758
-117.200005,70.32,949.320007,433762
-117.200005,58.600002,961.040039,433766
-93.760002,46.880001,949.320007,433770
-128.919998,35.16,972.76001,433774
-105.480003,70.32,961.040039,433778
-105.480003,70.32,949.320007,433782
-105.480003,70.32,961.040039,433786
-117.200005,82.040001,961.040039,433790
-105.480003,70.32,972.76001,433794
-93.760002,82.040001,961.040039,433798
-105.480003,58.600002,937.600037,433802
-105.480003,58.600002,949.320007,433806
-105.480003,70.32,961.040039,433810
-105.480003,82.040001,949.320007,433814
-93.760002,82.040001,961.040039,433818
-93.760002,82.040001,961.040039,433822
-105.480003,70.32,961.040039,433826
-117.200005,105.480003,949.320007,433830
-105.480003,93.760002,937.600037,433834
-105.480003,70.32,937.600037,433838
-117.200005,82.040001,961.040039,433842
-105.480003,105.480003,925.880005,433846
-117.200005,82.040001,937.600037,433850
-105.480003,82.040001,961.040039,433854
-105.480003,70.32,972.76001,433858
-117.200005,70.32,949.320007,433862
-117.200005,46.880001,961.040039,433866
-128.919998,58.600002,949.320007,433870
-105.480003,46.880001,949.320007,433874
-105.480003,58.600002,949.320007,433878
-117.200005,82.040001,949.320007,433882
-105.480003,70.32,972.76001,433886
-117.200005,82.040001,949.320007,433890
-128.919998,58.600002,961.040039,433894
-128.919998,70.32,949.320007,433898
-128.919998,58.600002,949.320007,433902
-117.200005,46.880001,949.320007,433906
-117.200005,70.32,949.320007,433910
-117.200005,93.760002,961.040039,433914
-128.919998,70.32,949.320007,433918
-117.200005,70.32,949.320007,433922
-117.200005,58.600002,949.320007,433926
-93.760002,58.600002,949.320007,433930
-105.480003,58.600002,949.320007,433934
-105.480003,58.600002,972.76001,433938
-93.760002,46.880001,961.040039,433942
-93.760002,70.32,949.320007,433946
-117.200005,70.32,949.320007,433950
-105.480003,46.880001,949.320007,433954
-93.760002,70.32,949.320007,433958
-117.200005,70.32,949.320007,433962
-128.919998,70.32,961.040039,433966
-105.480003,58.600002,961.040039,433970
-93.760002,58.600002,949.320007,433974
-93.760002,93.760002,949.320007,433978
-105.480003,117.200005,949.320007,433982
-105.480003,93.760002,937.600037,433986
-105.480003,70.32,949.320007,433990
-93.760002,93.760002,961.040039,433994
-93.760002,105.480003,949.320007,433998
-105.480003,82.040001,961.040039,434002
-93.760002,93.760002,961.040039,434006
-105.480003,46.880001,972.76001,434010
-105.480003,70.32,972.76001,434014
-105.480003,82.040001,984.480042,434018
-105.480003,46.880001,949.320007,434022
-93.760002,58.600002,949.320007,434026
-93.760002,58.600002,949.320007,434030
-105.480003,82.040001,961.040039,434034
-105.480003,58.600002,961.040039,434038
-105.480003,58.600002,949.320007,434042
-93.760002,58.600002,961.040039,434046
-105.480003,82.040001,949.320007,434050
-117.200005,82.040001,949.320007,434054
-105.480003,46.880001,949.320007,434058
-93.760002,70.32,961.040039,434062
-117.200005,58.600002,972.76001,434066
-117.200005,46.880001,961.040039,434070
-117.200005,46.880001,961.040039,434074
-105.480003,70.32,972.76001,434078
-93.760002,58.600002,972.76001,434082
-105.480003,82.040001,961.040039,434086
-105.480003,105.480003,961.040039,434090
-105.480003,82.040001,949.320007,434094
-105.480003,117.200005,949.320007,434098
-128.919998,82.040001,949.320007,434102
-105.480003,82.040001,961.040039,434106
-117.200005,82.040001,949.320007,434110
-117.200005,70.32,937.600037,434114
-105.480003,82.040001,937.600037,434118
-105.480003,93.760002,949.320007,434122
-117.200005,82.040001,949.320007,434126
-117.200005,105.480003,961.040039,434130
-105.480003,82.040001,972.76001,434134
-105.480003,105.480003,972.76001,434138
-93.760002,105.480003,972.76001,434142
-117.200005,93.760002,972.76001,434146
-128.919998,70.32,961.040039,434150
-105.480003,70.32,961.040039,434154
-105.480003,82.040001,961.040039,434158
-93.760002,70.32,961.040039,434162
-105.480003,93.760002,961.040039,434166
-105.480003,70.32,961.040039,434170
-117.200005,70.32,961.040039,434174
-105.480003,70.32,949.320007,434178
-93.760002,70.32,972.76001,434182
-105.480003,82.040001,949.320007,434186
-105.480003,82.040001,961.040039,434190
-105.480003,70.32,961.040039,434194
-93.760002,70.32,961.040039,434198
-105.480003,70.32,961.040039,434202
-105.480003,58.600002,972.76001,434206
-105.480003,70.32,972.76001,434210
-105.480003,70.32,949.320007,434214
-117.200005,58.600002,949.320007,434218
-117.200005,58.600002,961.040039,434222
-105.480003,93.760002,949.320007,434226
-105.480003,82.040001,949.320007,434230
-117.200005,93.760002,961.040039,434234
-117.200005,82.040001,949.320007,434238
-105.480003,93.760002,937.600037,434242
-93.760002,70.32,949.320007,434246
-93.760002,82.040001,961.040039,434250
-105.480003,93.760002,949.320007,434254
-105.480003,70.32,961.040039,434258
-117.200005,93.760002,972.76001,434262
-117.200005,82.040001,972.76001,434266
-117.200005,82.040001,949.320007,434270
-117.200005,70.32,949.320007,434274
-117.200005,70.32,937.600037,434278
-117.200005,82.040001,949.320007,434282
-117.200005,58.600002,961.040039,434286
-117.200005,70.32,937.600037,434290
-117.200005,82.040001,937.600037,434294
-117.200005,58.600002,937.600037,434298
-105.480003,93.760002,937.600037,434302
-93.760002,82.040001,937.600037,434306
-93.760002,93.760002,961.040039,434310
-105.480003,105.480003,949.320007,434314
-93.760002,82.040001,949.320007,434318
-105.480003,58.600002,961.040039,434322
-105.480003,70.32,961.040039,434326
-93.760002,70.32,949.320007,434330
-105.480003,70.32,961.040039,434334
-117.200005,58.600002,972.76001,434338
-117.200005,70.32,972.76001,434342
-117.200005,46.880001,961.040039,434346
-128.919998,46.880001,949.320007,434350
-105.480003,58.600002,961.040039,434354
-93.760002,82.040001,949.320007,434358
-93.760002,93.760002,972.76001,434362
-117.200005,70.32,984.480042,434366
-117.200005,82.040001,961.040039,434370
-117.200005,82.040001,961.040039,434374
-117.200005,93.760002,949.320007,434378
-117.200005,58.600002,972.76001,434382
-105.480003,58.600002,972.76001,434386
-117.200005,46.880001,961.040039,434390
-117.200005,70.32,972.76001,434394
-128.919998,70.32,961.040039,434398
-117.200005,105.480003,961.040039,434402
-105.480003,93.760002,961.040039,434406
-93.760002,93.760002,949.320007,434410
-117.200005,70.32,972.76001,434414
-117.200005,70.32,961.040039,434418
-93.760002,93.760002,949.320007,434422
-105.480003,105.480003,949.320007,434426
-93.760002,82.040001,961.040039,434430
-117.200005,82.040001,949.320007,434434
-117.200005,70.32,961.040039,434438
-105.480003,58.600002,961.040039,434442
-105.480003,105.480003,972.76001,434446
-93.760002,46.880001,961.040039,434450
-93.760002,35.16,961.040039,434454
-105.480003,58.600002,961.040039,434458
-105.480003,70.32,961.040039,434462
-105.480003,82.040001,961.040039,434466
-93.760002,70.32,949.320007,434470
-105.480003,58.600002,949.320007,434474
-105.480003,46.880001,961.040039,434478
-105.480003,46.880001,949.320007,434482
-93.760002,70.32,949.320007,434486
-93.760002,58.600002,972.76001,434490
-105.480003,35.16,949.320007,434494
-117.200005,58.600002,961.040039,434498
-117.200005,58.600002,949.320007,434502
-93.760002,82.040001,961.040039,434506
-105.480003,105.480003,961.040039,434510
-117.200005,82.040001,961.040039,434514
-128.919998,93.760002,961.040039,434518
-117.200005,70.32,949.320007,434522
-117.200005,70.32,949.320007,434526
-128.919998,82.040001,961.040039,434530
-117.200005,82.040001,949.320007,434534
-105.480003,93.760002,949.320007,434538
-105.480003,93.760002,949.320007,434542
-117.200005,93.760002,961.040039,434546
-93.760002,70.32,972.76001,434550
-105.480003,58.600002,984.480042,434554
-117.200005,82.040001,949.320007,434558
-105.480003,46.880001,961.040039,434562
-105.480003,70.32,949.320007,434566
-105.480003,58.600002,961.040039,434570
-105.480003,70.32,949.320007,434574
-128.919998,82.040001,949.320007,434578
-128.919998,70.32,949.320007,434582
-93.760002,82.040001,961.040039,434586
-93.760002,70.32,949.320007,434590
-105.480003,70.32,949.320007,434594
-117.200005,70.32,949.320007,434598
-128.919998,58.600002,949.320007,434602
-128.919998,70.32,937.600037,434606
-128.919998,93.760002,937.600037,434610
-105.480003,58.600002,961.040039,434614
-105.480003,93.760002,949.320007,434618
-93.760002,82.040001,949.320007,434622
-117.200005,93.760002,961.040039,434626
-105.480003,82.040001,961.040039,434630
-117.200005,105.480003,949.320007,434634
-117.200005,93.760002,961.040039,434638
-105.480003,82.040001,949.320007,434642
-93.760002,93.760002,961.040039,434646
-105.480003,58.600002,949.320007,434650
-117.200005,70.32,961.040039,434654
-117.200005,70.32,961.040039,434658
-128.919998,58.600002,961.040039,434662
-117.200005,70.32,949.320007,434666
-128.919998,70.32,949.320007,434670
-128.919998,82.040001,949.320007,434674
-117.200005,70.32,949.320007,434678
-105.480003,58.600002,949.320007,434682
-93.760002,82.040001,961.040039,434686
-105.480003,70.32,961.040039,434690
-93.760002,82.040001,937.600037,434694
-105.480003,82.040001,925.880005,434698
-105.480003,82.040001,937.600037,434702
-117.200005,70.32,937.600037,434706
-105.480003,70.32,949.320007,434710
-105.480003,58.600002,949.320007,434714
-105.480003,82.040001,961.040039,434718
-93.760002,82.040001,961.040039,434722
-105.480003,70.32,961.040039,434726
-105.480003,82.040001,949.320007,434730
-105.480003,70.32,972.76001,434734
-117.200005,35.16,984.480042,434738
-117.200005,46.880001,961.040039,434742
-117.200005,82.040001,961.040039,434746
-117.200005,93.760002,972.76001,434750
-117.200005,82.040001,949.320007,434754
-105.480003,70.32,972.76001,434758
-105.480003,58.600002,961.040039,434762
-105.480003,58.600002,961.040039,434766
-105.480003,82.040001,949.320007,434770
-93.760002,82.040001,961.040039,434774
-117.200005,70.32,949.320007,434778
-117.200005,93.760002,984.480042,434782
-117.200005,105.480003,972.76001,434786
-117.200005,93.760002,961.040039,434790
-128.919998,58.600002,961.040039,434794
-93.760002,58.600002,972.76001,434798
-93.760002,70.32,961.040039,434802
-93.760002,58.600002,949.320007,434806
-93.760002,82.040001,972.76001,434810
-93.760002,93.760002,984.480042,434814
-105.480003,58.600002,949.320007,434818
-93.760002,70.32,949.320007,434822
-105.480003,70.32,949.320007,434826
-105.480003,82.040001,949.320007,434830
-93.760002,58.600002,961.040039,434834
-93.760002,82.040001,972.76001,434838
-93.760002,82.040001,972.76001,434842
-117.200005,82.040001,972.76001,434846
-128.919998,82.040001,961.040039,434850
-105.480003,82.040001,949.320007,434854
-117.200005,93.760002,961.040039,434858
-117.200005,70.32,961.040039,434862
-117.200005,82.040001,949.320007,434866
-128.919998,82.040001,949.320007,434870
-128.919998,82.040001,949.320007,434874
-117.200005,93.760002,949.320007,434878
-117.200005,82.040001,961.040039,434882
-93.760002,93.760002,949.320007,434886
-105.480003,93.760002,937.600037,434890
-105.480003,82.040001,949.320007,434894
-93.760002,70.32,949.320007,434898
-117.200005,93.760002,949.320007,434902
-105.480003,70.32,961.040039,434906
-105.480003,70.32,949.320007,434910
-105.480003,58.600002,949.320007,434914
-93.760002,70.32,961.040039,434918
-117.200005,58.600002,949.320007,434922
-105.480003,82.040001,949.320007,434926
-105.480003,58.600002,961.040039,434930
-105.480003,70.32,949.320007,434934
-105.480003,70.32,949.320007,434938
-117.200005,46.880001,961.040039,434942
-128.919998,58.600002,949.320007,434946
-105.480003,58.600002,937.600037,434950
-105.480003,82.040001,937.600037,434954
-117.200005,82.040001,937.600037,434958
-117.200005,82.040001,949.320007,434962
-105.480003,93.760002,949.320007,434966
-105.480003,93.760002,949.320007,434970
-93.760002,70.32,949.320007,434974
-105.480003,70.32,972.76001,434978
-105.480003,70.32,949.320007,434982
-93.760002,82.040001,949.320007,434986
-93.760002,93.760002,949.320007,434990
-117.200005,70.32,937.600037,434994
-117.200005,46.880001,937.600037,434998
-105.480003,58.600002,937.600037,435002
-105.480003,70.32,949.320007,435006
-93.760002,58.600002,961.040039,435010
-117.200005,46.880001,937.600037,435014
-105.480003,46.880001,937.600037,435018
-128.919998,70.32,937.600037,435022
-117.200005,105.480003,949.320007,435026
-105.480003,105.480003,949.320007,435030
-93.760002,82.040001,961.040039,435034
-93.760002,82.040001,949.320007,435038
-93.760002,70.32,949.320007,435042
-128.919998,58.600002,961.040039,435046
-117.200005,70.32,937.600037,435050
-117.200005,46.880001,949.320007,435054
-93.760002,46.880001,972.76001,435058
-93.760002,82.040001,996.200012,435062
-105.480003,70.32,961.040039,435066
-140.639999,93.760002,937.600037,435070
-117.200005,82.040001,937.600037,435074
-117.200005,82.040001,972.76001,435078
-117.200005,70.32,961.040039,435082
-140.639999,70.32,937.600037,435086
-128.919998,82.040001,937.600037,435090
-117.200005,93.760002,961.040039,435094
-117.200005,93.760002,949.320007,435098
-117.200005,82.040001,996.200012,435102
-117.200005,58.600002,961.040039,435106
-105.480003,70.32,949.320007,435110
-93.760002,70.32,972.76001,435114
-128.919998,82.040001,949.320007,435118
-117.200005,105.480003,949.320007,435122
-117.200005,70.32,961.040039,435126
-117.200005,82.040001,949.320007,435130
-105.480003,58.600002,937.600037,435134
-105.480003,70.32,937.600037,435138
-93.760002,46.880001,925.880005,435142
-105.480003,93.760002,949.320007,435146
-93.760002,93.760002,961.040039,435150
-105.480003,82.040001,961.040039,435154
-93.760002,70.32,961.040039,435158
-105.480003,70.32,972.76001,435162
-105.480003,70.32,949.320007,435166
-117.200005,70.32,937.600037,435170
-105.480003,70.32,961.040039,435174
-93.760002,58.600002,949.320007,435178
-93.760002,93.760002,972.76001,435182
-105.480003,117.200005,996.200012,435186
-105.480003,46.880001,984.480042,435190
-105.480003,70.32,984.480042,435194
-117.200005,70.32,961.040039,435198
-105.480003,70.32,949.320007,435202
-93.760002,82.040001,949.320007,435206
-105.480003,46.880001,961.040039,435210
-117.200005,46.880001,949.320007,435214
-117.200005,93.760002,961.040039,435218
-105.480003,82.040001,961.040039,435222
-117.200005,58.600002,949.320007,435226
-105.480003,82.040001,949.320007,435230
-117.200005,105.480003,949.320007,435234
-105.480003,93.760002,961.040039,435238
-105.480003,70.32,972.76001,435242
-105.480003,93.760002,961.040039,435246
-117.200005,70.32,961.040039,435250
-105.480003,70.32,949.320007,435254
-105.480003,70.32,949.320007,435258
-93.760002,70.32,972.76001,435262
-105.480003,35.16,949.320007,435266
-128.919998,58.600002,961.040039,435270
-140.639999,46.880001,961.040039,435274
-140.639999,58.600002,949.320007,435278
-105.480003,58.600002,937.600037,435282
-105.480003,70.32,949.320007,435286
-117.200005,70.32,949.320007,435290
-117.200005,93.760002,961.040039,435294
-117.200005,82.040001,925.880005,435298
-117.200005,82.040001,949.320007,435302
-128.919998,105.480003,972.76001,435306
-117.200005,82.040001,949.320007,435310
-117.200005,93.760002,972.76001,435314
-105.480003,58.600002,972.76001,435318
-105.480003,70.32,972.76001,435322
-117.200005,82.040001,949.320007,435326
-105.480003,70.32,949.320007,435330
-105.480003,70.32,937.600037,435334
-93.760002,46.880001,949.320007,435338
-105.480003,58.600002,972.76001,435342
-105.480003,82.040001,972.76001,435346
-105.480003,93.760002,961.040039,435350
-105.480003,93.760002,937.600037,435354
-105.480003,105.480003,949.320007,435358
-105.480003,82.040001,949.320007,435362
-117.200005,58.600002,972.76001,435366
-105.480003,58.600002,961.040039,435370
-105.480003,70.32,961.040039,435374
-105.480003,35.16,961.040039,435378
-93.760002,70.32,949.320007,435382
-105.480003,82.040001,961.040039,435386
-93.760002,93.760002,949.320007,435390
-140.639999,82.040001,961.040039,435394
-117.200005,70.32,937.600037,435398
-105.480003,70.32,949.320007,435402
-105.480003,70.32,949.320007,435406
-105.480003,70.32,961.040039,435410
-93.760002,58.600002,949.320007,435414
-128.919998,58.600002,949.320007,435418
-117.200005,70.32,925.880005,435422
-117.200005,82.040001,972.76001,435426
-117.200005,82.040001,972.76001,435430
-117.200005,93.760002,961.040039,435434
-105.480003,70.32,961.040039,435438
-105.480003,46.880001,961.040039,435442
-117.200005,58.600002,949.320007,435446
-93.760002,93.760002,949.320007,435450
-93.760002,82.040001,961.040039,435454
-105.480003,93.760002,961.040039,435458
-105.480003,82.040001,972.76001,435462
-93.760002,82.040001,972.76001,435466
-117.200005,82.040001,961.040039,435470
-117.200005,70.32,961.040039,435474
-128.919998,70.32,961.040039,435478
-117.200005,70.32,937.600037,435482
-117.200005,58.600002,937.600037,435486
-93.760002,93.760002,961.040039,435490
-105.480003,93.760002,949.320007,435494
-117.200005,70.32,961.040039,435498
-117.200005,82.040001,972.76001,435502
-117.200005,82.040001,949.320007,435506
-117.200005,93.760002,949.320007,435510
-105.480003,82.040001,949.320007,435514
-105.480003,82.040001,949.320007,435518
-105.480003,70.32,972.76001,435522
-105.480003,82.040001,949.320007,435526
-105.480003,93.760002,949.320007,435530
-105.480003,105.480003,949.320007,435534
-105.480003,93.760002,949.320007,435538
-140.639999,70.32,961.040039,435542
-117.200005,70.32,961.040039,435546
-117.200005,82.040001,961.040039,435550
-105.480003,82.040001,961.040039,435554
-117.200005,82.040001,949.320007,435558
-117.200005,82.040001,961.040039,435562
-105.480003,82.040001,961.040039,435566
-105.480003,105.480003,972.76001,435570
-117.200005,82.040001,949.320007,435574
-117.200005,82.040001,937.600037,435578
-117.200005,82.040001,937.600037,435582
-117.200005,58.600002,937.600037,435586
-140.639999,58.600002,972.76001,435590
-128.919998,70.32,961.040039,435594
-140.639999,70.32,972.76001,435598
-105.480003,46.880001,949.320007,435602
-105.480003,35.16,937.600037,435606
-117.200005,35.16,961.040039,435610
-128.919998,58.600002,961.040039,435614
-117.200005,58.600002,949.320007,435618
-117.200005,82.040001,984.480042,435622
-105.480003,82.040001,961.040039,435626
-117.200005,70.32,961.040039,435630
-117.200005,46.880001,961.040039,435634
-105.480003,82.040001,949.320007,435638
-105.480003,70.32,949.320007,435642
-105.480003,70.32,949.320007,435646
-105.480003,82.040001,937.600037,435650
-93.760002,46.880001,949.320007,435654
-93.760002,70.32,961.040039,435658
-105.480003,82.040001,949.320007,435662
-105.480003,58.600002,972.76001,435666
-105.480003,70.32,961.040039,435670
-93.760002,58.600002,972.76001,435674
-117.200005,70.32,961.040039,435678
-105.480003,82.040001,949.320007,435682
-93.760002,93.760002,949.320007,435686
-93.760002,82.040001,937.600037,435690
-93.760002,70.32,949.320007,435694
-93.760002,82.040001,972.76001,435698
-152.360001,70.32,972.76001,435702
-117.200005,105.480003,961.040039,435706
-128.919998,82.040001,961.040039,435710
-105.480003,70.32,949.320007,435714
-105.480003,93.760002,949.320007,435718
-105.480003,105.480003,961.040039,435722
-105.480003,105.480003,984.480042,435726
-105.480003,70.32,972.76001,435730
-105.480003,82.040001,961.040039,435734
-93.760002,93.760002,961.040039,435738
-105.480003,93.760002,949.320007,435742
-105.480003,70.32,949.320007,435746
-117.200005,93.760002,961.040039,435750
-117.200005,82.040001,949.320007,435754
-117.200005,82.040001,937.600037,435758
-105.480003,82.040001,937.600037,435762
-105.480003,82.040001,949.320007,435766
-105.480003,93.760002,961.040039,435770
-93.760002,70.32,961.040039,435774
-117.200005,82.040001,949.320007,435778
-128.919998,105.480003,949.320007,435782
-128.919998,105.480003,949.320007,435786
-128.919998,93.760002,949.320007,435790
-117.200005,58.600002,949.320007,435794
-152.360001,46.880001,949.320007,435798
-128.919998,82.040001,961.040039,435802
-93.760002,82.040001,961.040039,435806
-105.480003,93.760002,949.320007,435810
-93.760002,58.600002,961.040039,435814
-105.480003,46.880001,961.040039,435818
-128.919998,70.32,949.320007,435822
-128.919998,58.600002,961.040039,435826
-105.480003,58.600002,914.160034,435830
-105.480003,46.880001,937.600037,435834
-93.760002,46.880001,937.600037,435838
-105.480003,46.880001,949.320007,435842
-93.760002,58.600002,961.040039,435846
-93.760002,70.32,961.040039,435850
-105.480003,82.040001,961.040039,435854
-105.480003,58.600002,972.76001,435858
-93.760002,93.760002,949.320007,435862
-117.200005,82.040001,949.320007,435866
-117.200005,70.32,949.320007,435870
-128.919998,46.880001,972.76001,435874
-117.200005,82.040001,961.040039,435878
-128.919998,82.040001,949.320007,435882
-117.200005,82.040001,961.040039,435886
-117.200005,82.040001,961.040039,435890
-140.639999,70.32,949.320007,435894
-105.480003,82.040001,949.320007,435898
-93.760002,82.040001,949.320007,435902
-93.760002,46.880001,961.040039,435906
-93.760002,58.600002,949.320007,435910
-105.480003,70.32,972.76001,435914
-128.919998,105.480003,949.320007,435918
-105.480003,105.480003,949.320007,435922
-93.760002,105.480003,961.040039,435926
-105.480003,105.480003,961.040039,435930
-105.480003,117.200005,949.320007,435934
-105.480003,82.040001,949.320007,435938
-93.760002,70.32,949.320007,435942
-105.480003,82.040001,972.76001,435946
-117.200005,117.200005,972.76001,435950
-117.200005,93.760002,949.320007,435954
-128.919998,82.040001,937.600037,435958
-117.200005,70.32,937.600037,435962
-117.200005,82.040001,949.320007,435966
-105.480003,82.040001,937.600037,435970
-105.480003,82.040001,949.320007,435974
-105.480003,105.480003,961.040039,435978
-105.480003,58.600002,949.320007,435982
-93.760002,58.600002,961.040039,435986
-105.480003,93.760002,984.480042,435990
-93.760002,70.32,961.040039,435994
-117.200005,70.32,961.040039,435998
-128.919998,70.32,961.040039,436002
-117.200005,82.040001,972.76001,436006
-128.919998,93.760002,972.76001,436010
-140.639999,82.040001,961.040039,436014
-117.200005,82.040001,961.040039,436018
-117.200005,82.040001,949.320007,436022
-117.200005,70.32,961.040039,436026
-105.480003,82.040001,949.320007,436030
-93.760002,82.040001,961.040039,436034
-117.200005,70.32,972.76001,436038
-128.919998,82.040001,961.040039,436042
-105.480003,70.32,961.040039,436046
-93.760002,82.040001,949.320007,436050
-93.760002,93.760002,961.040039,436054
-105.480003,93.760002,961.040039,436058
-93.760002,82.040001,984.480042,436062
-105.480003,82.040001,984.480042,436066
-93.760002,58.600002,972.76001,436070
-93.760002,93.760002,961.040039,436074
-105.480003,82.040001,949.320007,436078
-128.919998,70.32,949.320007,436082
-117.200005,82.040001,937.600037,436086
-105.480003,82.040001,972.76001,436090
-117.200005,82.040001,961.040039,436094
-105.480003,82.040001,972.76001,436098
-117.200005,58.600002,949.320007,436102
-128.919998,70.32,972.76001,436106
-128.919998,93.760002,949.320007,436110
-105.480003,82.040001,949.320007,436114
-93.760002,58.600002,949.320007,436118
-105.480003,93.760002,972.76001,436122
-105.480003,93.760002,972.76001,436126
-105.480003,82.040001,961.040039,436130
-93.760002,82.040001,949.320007,436134
-93.760002,93.760002,961.040039,436138
-117.200005,58.600002,949.320007,436142
-105.480003,82.040001,961.040039,436146
-117.200005,70.32,972.76001,436150
-117.200005,70.32,972.76001,436154
-117.200005,70.32,949.320007,436158
-117.200005,82.040001,961.040039,436162
-105.480003,93.760002,961.040039,436166
-105.480003,70.32,972.76001,436170
-93.760002,82.040001,961.040039,436174
-117.200005,93.760002,984.480042,436178
-93.760002,70.32,972.76001,436182
-105.480003,58.600002,949.320007,436186
-93.760002,70.32,949.320007,436190
-105.480003,58.600002,949.320007,436194
-117.200005,82.040001,961.040039,436198
-117.200005,70.32,961.040039,436202
-117.200005,82.040001,961.040039,436206
-117.200005,82.040001,961.040039,436210
-105.480003,46.880001,961.040039,436214
-105.480003,70.32,949.320007,436218
-128.919998,82.040001,961.040039,436222
-128.919998,82.040001,949.320007,436226
-93.760002,82.040001,937.600037,436230
-93.760002,93.760002,972.76001,436234
-105.480003,82.040001,949.320007,436238
-117.200005,58.600002,972.76001,436242
-128.919998,35.16,961.040039,436246
-117.200005,58.600002,961.040039,436250
-105.480003,70.32,937.600037,436254
-105.480003,93.760002,949.320007,436258
-128.919998,82.040001,961.040039,436262
-93.760002,58.600002,949.320007,436266
-93.760002,93.760002,949.320007,436270
-105.480003,70.32,937.600037,436274
-105.480003,58.600002,972.76001,436278
-105.480003,58.600002,972.76001,436282
-105.480003,70.32,984.480042,436286
-105.480003,93.760002,961.040039,436290
-93.760002,93.760002,949.320007,436294
-105.480003,70.32,972.76001,436298
-105.480003,70.32,972.76001,436302
-105.480003,82.040001,972.76001,436306
-117.200005,93.760002,972.76001,436310
-117.200005,82.040001,961.040039,436314
-117.200005,70.32,949.320007,436318
-105.480003,58.600002,961.040039,436322
-117.200005,46.880001,949.320007,436326
-117.200005,46.880001,949.320007,436330
-93.760002,46.880001,961.040039,436334
-93.760002,58.600002,949.320007,436338
-117.200005,46.880001,949.320007,436342
-105.480003,46.880001,949.320007,436346
-93.760002,105.480003,949.320007,436350
-105.480003,82.040001,961.040039,436354
-105.480003,58.600002,949.320007,436358
-117.200005,70.32,961.040039,436362
-128.919998,58.600002,949.320007,436366
-117.200005,105.480003,949.320007,436370
-105.480003,105.480003,972.76001,436374
-93.760002,82.040001,984.480042,436378
-128.919998,82.040001,949.320007,436382
-105.480003,82.040001,949.320007,436386
-117.200005,82.040001,961.040039,436390
-128.919998,70.32,937.600037,436394
-117.200005,82.040001,961.040039,436398
-117.200005,93.760002,949.320007,436402
-93.760002,82.040001,949.320007,436406
-105.480003,58.600002,949.320007,436410
-93.760002,70.32,961.040039,436414
-105.480003,46.880001,949.320007,436418
-105.480003,46.880001,949.320007,436422
-117.200005,93.760002,949.320007,436426
-140.639999,58.600002,949.320007,436430
-128.919998,70.32,961.040039,436434
-117.200005,70.32,961.040039,436438
-117.200005,46.880001,949.320007,436442
-128.919998,58.600002,972.76001,436446
-105.480003,82.040001,972.76001,436450
-105.480003,93.760002,949.320007,436454
-117.200005,58.600002,949.320007,436458
-117.200005,70.32,949.320007,436462
-105.480003,58.600002,937.600037,436466
-105.480003,93.760002,937.600037,436470
-128.919998,82.040001,937.600037,436474
-117.200005,70.32,949.320007,436478
-117.200005,82.040001,961.040039,436482
-117.200005,82.040001,961.040039,436486
-117.200005,70.32,984.480042,436490
-128.919998,93.760002,972.76001,436494
-105.480003,70.32,949.320007,436498
-117.200005,82.040001,961.040039,436502
-117.200005,82.040001,961.040039,436506
-105.480003,70.32,961.040039,436510
-105.480003,35.16,961.040039,436514
-105.480003,70.32,949.320007,436518
-93.760002,82.040001,949.320007,436522
-117.200005,93.760002,972.76001,436526
-140.639999,70.32,972.76001,436530
-128.919998,82.040001,949.320007,436534
-117.200005,70.32,937.600037,436538
-105.480003,82.040001,937.600037,436542
-105.480003,82.040001,949.320007,436546
-128.919998,82.040001,949.320007,436550
-117.200005,93.760002,961.040039,436554
-105.480003,93.760002,949.320007,436558
-93.760002,82.040001,937.600037,436562
-105.480003,93.760002,949.320007,436566
-93.760002,82.040001,961.040039,436570
-105.480003,82.040001,949.320007,436574
-128.919998,58.600002,949.320007,436578
-117.200005,35.16,961.040039,436582
-105.480003,82.040001,949.320007,436586
-93.760002,82.040001,961.040039,436590
-128.919998,82.040001,949.320007,436594
-117.200005,105.480003,961.040039,436598
-128.919998,70.32,961.040039,436602
-105.480003,70.32,949.320007,436606
-93.760002,70.32,949.320007,436610
-93.760002,82.040001,949.320007,436614
-93.760002,105.480003,961.040039,436618
-140.639999,82.040001,961.040039,436622
-117.200005,82.040001,972.76001,436626
-105.480003,93.760002,949.320007,436630
-117.200005,70.32,961.040039,436634
-117.200005,82.040001,961.040039,436638
-105.480003,93.760002,961.040039,436642
-105.480003,105.480003,961.040039,436646
-93.760002,70.32,949.320007,436650
-117.200005,58.600002,949.320007,436654
-128.919998,58.600002,972.76001,436658
-117.200005,82.040001,961.040039,436662
-105.480003,82.040001,949.320007,436666
-117.200005,70.32,961.040039,436670
-105.480003,58.600002,949.320007,436674
-93.760002,82.040001,949.320007,436678
-105.480003,82.040001,949.320007,436682
-128.919998,82.040001,949.320007,436686
-117.200005,70.32,949.320007,436690
-105.480003,82.040001,961.040039,436694
-93.760002,82.040001,972.76001,436698
-105.480003,58.600002,961.040039,436702
-93.760002,93.760002,961.040039,436706
-117.200005,70.32,961.040039,436710
-105.480003,93.760002,949.320007,436714
-93.760002,117.200005,949.320007,436718
-93.760002,70.32,972.76001,436722
-93.760002,82.040001,972.76001,436726
-105.480003,82.040001,949.320007,436730
-93.760002,70.32,937.600037,436734
-117.200005,82.040001,937.600037,436738
-105.480003,70.32,949.320007,436742
-105.480003,70.32,949.320007,436746
-117.200005,93.760002,961.040039,436750
-117.200005,82.040001,961.040039,436754
-105.480003,58.600002,961.040039,436758
-105.480003,82.040001,961.040039,436762
-105.480003,117.200005,937.600037,436766
-105.480003,93.760002,949.320007,436770
-105.480003,70.32,949.320007,436774
-93.760002,70.32,949.320007,436778
-117.200005,82.040001,961.040039,436782
-117.200005,105.480003,961.040039,436786
-105.480003,105.480003,961.040039,436790
-105.480003,93.760002,949.320007,436794
-117.200005,93.760002,949.320007,436798
-117.200005,82.040001,961.040039,436802
-105.480003,82.040001,961.040039,436806
-105.480003,70.32,972.76001,436810
-93.760002,82.040001,961.040039,436814
-93.760002,82.040001,961.040039,436818
-117.200005,58.600002,937.600037,436822
-105.480003,58.600002,937.600037,436826
-93.760002,46.880001,961.040039,436830
-93.760002,58.600002,972.76001,436834
-105.480003,58.600002,961.040039,436838
-105.480003,70.32,961.040039,436842
-105.480003,46.880001,961.040039,436846
-117.200005,46.880001,961.040039,436850
-117.200005,35.16,949.320007,436854
-128.919998,82.040001,949.320007,436858
-105.480003,105.480003,937.600037,436862
-128.919998,117.200005,937.600037,436866
-117.200005,82.040001,949.320007,436870
-93.760002,93.760002,972.76001,436874
-93.760002,105.480003,961.040039,436878
-105.480003,93.760002,972.76001,436882
-105.480003,70.32,972.76001,436886
-117.200005,82.040001,961.040039,436890
-117.200005,93.760002,937.600037,436894
-105.480003,82.040001,949.320007,436898
-117.200005,70.32,961.040039,436902
-117.200005,82.040001,972.76001,436906
-117.200005,70.32,961.040039,436910
-105.480003,82.040001,949.320007,436914
-105.480003,82.040001,937.600037,436918
-117.200005,93.760002,937.600037,436922
-117.200005,58.600002,961.040039,436926
-105.480003,82.040001,949.320007,436930
-105.480003,70.32,961.040039,436934
-117.200005,58.600002,972.76001,436938
-117.200005,58.600002,961.040039,436942
-105.480003,70.32,949.320007,436946
-105.480003,58.600002,961.040039,436950
-105.480003,70.32,949.320007,436954
-93.760002,82.040001,949.320007,436958
-105.480003,70.32,949.320007,436962
-93.760002,58.600002,961.040039,436966
-105.480003,70.32,961.040039,436970
-93.760002,82.040001,949.320007,436974
-93.760002,82.040001,949.320007,436978
-105.480003,82.040001,961.040039,436982
-105.480003,93.760002,972.76001,436986
-93.760002,105.480003,972.76001,436990
-105.480003,82.040001,949.320007,436994
-105.480003,82.040001,961.040039,436998
-128.919998,58.600002,949.320007,437002
-128.919998,58.600002,961.040039,437006
-117.200005,82.040001,949.320007,437010
-117.200005,70.32,961.040039,437014
-93.760002,58.600002,961.040039,437018
-93.760002,82.040001,972.76001,437022
-93.760002,82.040001,961.040039,437026
-117.200005,70.32,961.040039,437030
-105.480003,70.32,949.320007,437034
-105.480003,46.880001,961.040039,437038
-93.760002,46.880001,949.320007,437042
-93.760002,70.32,961.040039,437046
-117.200005,46.880001,961.040039,437050
-105.480003,46.880001,949.320007,437054
-105.480003,70.32,949.320007,437058
-105.480003,70.32,949.320007,437062
-105.480003,70.32,949.320007,437066
-117.200005,82.040001,949.320007,437070
-105.480003,93.760002,972.76001,437074
-105.480003,70.32,949.320007,437078
-140.639999,82.040001,949.320007,437082
-105.480003,82.040001,961.040039,437086
-117.200005,58.600002,961.040039,437090
-140.639999,70.32,949.320007,437094
-117.200005,58.600002,949.320007,437098
-105.480003,46.880001,961.040039,437102
-93.760002,58.600002,949.320007,437106
-105.480003,58.600002,925.880005,437110
-117.200005,46.880001,961.040039,437114
-140.639999,46.880001,961.040039,437118
-128.919998,46.880001,949.320007,437122
-140.639999,70.32,949.320007,437126
-128.919998,58.600002,937.600037,437130
-117.200005,82.040001,949.320007,437134
-128.919998,82.040001,961.040039,437138
-117.200005,82.040001,949.320007,437142
-105.480003,82.040001,949.320007,437146
-117.200005,70.32,949.320007,437150
-105.480003,93.760002,949.320007,437154
-105.480003,105.480003,949.320007,437158
-117.200005,70.32,961.040039,437162
-128.919998,46.880001,961.040039,437166
-128.919998,46.880001,961.040039,437170
-105.480003,58.600002,961.040039,437174
-105.480003,46.880001,949.320007,437178
-93.760002,70.32,961.040039,437182
-93.760002,58.600002,984.480042,437186
-105.480003,58.600002,961.040039,437190
-93.760002,70.32,949.320007,437194
-105.480003,70.32,996.200012,437198
-105.480003,70.32,972.76001,437202
-105.480003,93.760002,972.76001,437206
-93.760002,70.32,961.040039,437210
-105.480003,82.040001,937.600037,437214
-105.480003,82.040001,961.040039,437218
-128.919998,82.040001,949.320007,437222
-117.200005,70.32,949.320007,437226
-117.200005,58.600002,949.320007,437230
-105.480003,58.600002,961.040039,437234
-93.760002,93.760002,961.040039,437238
-105.480003,70.32,972.76001,437242
-105.480003,82.040001,949.320007,437246
-117.200005,82.040001,949.320007,437250
-82.040001,58.600002,937.600037,437254
-82.040001,70.32,937.600037,437258
-93.760002,70.32,961.040039,437262
-105.480003,58.600002,949.320007,437266
-105.480003,46.880001,961.040039,437270
-105.480003,58.600002,949.320007,437274
-105.480003,82.040001,949.320007,437278
-93.760002,93.760002,949.320007,437282
-93.760002,93.760002,949.320007,437286
-105.480003,82.040001,949.320007,437290
-105.480003,93.760002,949.320007,437294
-117.200005,58.600002,937.600037,437298
-105.480003,58.600002,961.040039,437302
-117.200005,58.600002,949.320007,437306
-93.760002,58.600002,949.320007,437310
-105.480003,105.480003,949.320007,437314
-105.480003,82.040001,949.320007,437318
-93.760002,70.32,949.320007,437322
-93.760002,82.040001,961.040039,437326
-105.480003,82.040001,961.040039,437330
-117.200005,70.32,949.320007,437334
-105.480003,93.760002,961.040039,437338
-117.200005,82.040001,972.76001,437342
-105.480003,58.600002,949.320007,437346
-105.480003,58.600002,949.320007,437350
-93.760002,58.600002,949.320007,437354
-105.480003,46.880001,949.320007,437358
-105.480003,58.600002,949.320007,437362
-93.760002,58.600002,949.320007,437366
-105.480003,58.600002,961.040039,437370
-93.760002,70.32,961.040039,437374
-117.200005,105.480003,961.040039,437378
-117.200005,82.040001,961.040039,437382
-105.480003,70.32,972.76001,437386
-93.760002,70.32,949.320007,437390
-105.480003,58.600002,972.76001,437394
-93.760002,58.600002,961.040039,437398
-105.480003,58.600002,961.040039,437402
-105.480003,70.32,949.320007,437406
-93.760002,82.040001,961.040039,437410
-105.480003,58.600002,949.320007,437414
-93.760002,82.040001,937.600037,437418
-117.200005,105.480003,937.600037,437422
-152.360001,82.040001,937.600037,437426
-128.919998,82.040001,961.040039,437430
-128.919998,93.760002,961.040039,437434
-105.480003,93.760002,961.040039,437438
-105.480003,70.32,961.040039,437442
-117.200005,93.760002,949.320007,437446
-105.480003,58.600002,949.320007,437450
-105.480003,46.880001,937.600037,437454
-117.200005,46.880001,949.320007,437458
-117.200005,70.32,949.320007,437462
-93.760002,82.040001,949.320007,437466
-105.480003,70.32,949.320007,437470
-128.919998,58.600002,961.040039,437474
-117.200005,46.880001,949.320007,437478
-117.200005,70.32,961.040039,437482
-117.200005,58.600002,961.040039,437486
-128.919998,46.880001,949.320007,437490
-105.480003,23.440001,961.040039,437494
-117.200005,58.600002,949.320007,437498
-117.200005,93.760002,961.040039,437502
-117.200005,82.040001,949.320007,437506
-117.200005,58.600002,949.320007,437510
-140.639999,82.040001,961.040039,437514
-152.360001,70.32,949.320007,437518
-140.639999,82.040001,961.040039,437522
-128.919998,70.32,949.320007,437526
-105.480003,82.040001,961.040039,437530
-93.760002,70.32,949.320007,437534
-128.919998,93.760002,949.320007,437538
-93.760002,58.600002,961.040039,437542
-93.760002,82.040001,961.040039,437546
-128.919998,93.760002,972.76001,437550
-152.360001,93.760002,984.480042,437554
-128.919998,58.600002,972.76001,437558
-128.919998,93.760002,961.040039,437562
-117.200005,46.880001,961.040039,437566
-105.480003,70.32,949.320007,437570
-140.639999,70.32,961.040039,437574
-105.480003,82.040001,961.040039,437578
-93.760002,105.480003,949.320007,437582
-105.480003,93.760002,949.320007,437586
-117.200005,82.040001,949.320007,437590
-117.200005,58.600002,949.320007,437594
-117.200005,82.040001,949.320007,437598
-117.200005,70.32,949.320007,437602
-105.480003,93.760002,961.040039,437606
-105.480003,93.760002,961.040039,437610
-105.480003,70.32,949.320007,437614
-105.480003,82.040001,949.320007,437618
-105.480003,93.760002,972.76001,437622
-105.480003,82.040001,949.320007,437626
-93.760002,82.040001,972.76001,437630
-93.760002,105.480003,961.040039,437634
-117.200005,82.040001,961.040039,437638
-105.480003,70.32,984.480042,437642
-117.200005,70.32,984.480042,437646
-93.760002,70.32,961.040039,437650
-93.760002,70.32,961.040039,437654
-105.480003,93.760002,961.040039,437658
-140.639999,70.32,961.040039,437662
-128.919998,93.760002,972.76001,437666
-117.200005,93.760002,961.040039,437670
-140.639999,82.040001,949.320007,437674
-117.200005,58.600002,949.320007,437678
-128.919998,70.32,949.320007,437682
-128.919998,70.32,961.040039,437686
-93.760002,58.600002,961.040039,437690
-105.480003,93.760002,961.040039,437694
-105.480003,58.600002,937.600037,437698
-93.760002,70.32,937.600037,437702
-105.480003,46.880001,949.320007,437706
-128.919998,82.040001,949.320007,437710
-117.200005,93.760002,937.600037,437714
-117.200005,82.040001,949.320007,437718
-117.200005,105.480003,972.76001,437722
-128.919998,70.32,961.040039,437726
-128.919998,46.880001,961.040039,437730
-128.919998,58.600002,961.040039,437734
-105.480003,46.880001,949.320007,437738
-117.200005,46.880001,961.040039,437742
-117.200005,82.040001,949.320007,437746
-117.200005,93.760002,949.320007,437750
-117.200005,105.480003,937.600037,437754
-117.200005,93.760002,937.600037,437758
-117.200005,82.040001,984.480042,437762
-117.200005,93.760002,972.76001,437766
-128.919998,70.32,961.040039,437770
-128.919998,58.600002,961.040039,437774
-117.200005,58.600002,961.040039,437778
-128.919998,82.040001,949.320007,437782
-128.919998,93.760002,972.76001,437786
-93.760002,70.32,961.040039,437790
-93.760002,93.760002,961.040039,437794
-105.480003,58.600002,949.320007,437798
-93.760002,93.760002,937.600037,437802
-105.480003,70.32,937.600037,437806
-128.919998,70.32,937.600037,437810
-128.919998,58.600002,937.600037,437814
-117.200005,82.040001,937.600037,437818
-128.919998,82.040001,937.600037,437822
-140.639999,58.600002,937.600037,437826
-117.200005,70.32,949.320007,437830
-105.480003,46.880001,972.76001,437834
-105.480003,93.760002,961.040039,437838
-93.760002,70.32,949.320007,437842
-105.480003,46.880001,949.320007,437846
-105.480003,58.600002,949.320007,437850
-117.200005,82.040001,996.200012,437854
-105.480003,46.880001,961.040039,437858
-105.480003,58.600002,949.320007,437862
-128.919998,46.880001,961.040039,437866
-117.200005,46.880001,949.320007,437870
-117.200005,70.32,984.480042,437874
-117.200005,46.880001,949.320007,437878
-105.480003,58.600002,961.040039,437882
-117.200005,58.600002,961.040039,437886
-105.480003,93.760002,949.320007,437890
-117.200005,70.32,961.040039,437894
-105.480003,46.880001,949.320007,437898
-93.760002,58.600002,949.320007,437902
-93.760002,70.32,984.480042,437906
-105.480003,58.600002,949.320007,437910
-105.480003,70.32,949.320007,437914
-128.919998,58.600002,949.320007,437918
-105.480003,70.32,949.320007,437922
-93.760002,82.040001,949.320007,437926
-93.760002,82.040001,949.320007,437930
-93.760002,93.760002,949.320007,437934
-105.480003,58.600002,949.320007,437938
-105.480003,70.32,949.320007,437942
-105.480003,70.32,949.320007,437946
-128.919998,70.32,961.040039,437950
-105.480003,58.600002,961.040039,437954
-105.480003,58.600002,949.320007,437958
-105.480003,70.32,961.040039,437962
-93.760002,82.040001,961.040039,437966
-117.200005,70.32,949.320007,437970
-105.480003,82.040001,972.76001,437974
-117.200005,46.880001,961.040039,437978
-117.200005,35.16,949.320007,437982
-105.480003,70.32,949.320007,437986
-93.760002,58.600002,949.320007,437990
-128.919998,46.880001,961.040039,437994
-128.919998,70.32,961.040039,437998
-128.919998,93.760002,949.320007,438002
-117.200005,82.040001,972.76001,438006
-128.919998,58.600002,961.040039,438010
-128.919998,35.16,961.040039,438014
-117.200005,82.040001,972.76001,438018
-105.480003,82.040001,961.040039,438022
-105.480003,82.040001,961.040039,438026
-117.200005,82.040001,961.040039,438030
-93.760002,70.32,961.040039,438034
-93.760002,93.760002,961.040039,438038
-93.760002,82.040001,961.040039,438042
-93.760002,70.32,961.040039,438046
-105.480003,58.600002,961.040039,438050
-105.480003,70.32,949.320007,438054
-117.200005,93.760002,984.480042,438058
-117.200005,93.760002,961.040039,438062
-117.200005,82.040001,961.040039,438066
-117.200005,82.040001,949.320007,438070
-117.200005,58.600002,961.040039,438074
-117.200005,93.760002,949.320007,438078
-105.480003,82.040001,949.320007,438082
-105.480003,93.760002,949.320007,438086
-105.480003,46.880001,961.040039,438090
-93.760002,93.760002,961.040039,438094
-93.760002,58.600002,949.320007,438098
-105.480003,58.600002,961.040039,438102
-105.480003,58.600002,949.320007,438106
-105.480003,82.040001,949.320007,438110
-93.760002,93.760002,961.040039,438114
-93.760002,82.040001,949.320007,438118
-93.760002,70.32,949.320007,438122
-105.480003,105.480003,937.600037,438126
-93.760002,93.760002,961.040039,438130
-105.480003,82.040001,949.320007,438134
-105.480003,82.040001,961.040039,438138
-93.760002,82.040001,961.040039,438142
-105.480003,58.600002,949.320007,438146
-105.480003,58.600002,961.040039,438150
-117.200005,58.600002,949.320007,438154
-117.200005,82.040001,949.320007,438158
-117.200005,93.760002,949.320007,438162
-105.480003,93.760002,949.320007,438166
-117.200005,70.32,961.040039,438170
-117.200005,82.040001,949.320007,438174
-117.200005,58.600002,949.320007,438178
-117.200005,82.040001,949.320007,438182
-105.480003,58.600002,949.320007,438186
-93.760002,58.600002,961.040039,438190
-117.200005,46.880001,949.320007,438194
-117.200005,70.32,949.320007,438198
-128.919998,82.040001,972.76001,438202
-105.480003,93.760002,949.320007,438206
-105.480003,93.760002,937.600037,438210
-117.200005,93.760002,949.320007,438214
-117.200005,70.32,961.040039,438218
-105.480003,82.040001,961.040039,438222
-105.480003,93.760002,949.320007,438226
-93.760002,93.760002,961.040039,438230
-93.760002,93.760002,949.320007,438234
-93.760002,82.040001,949.320007,438238
-93.760002,105.480003,949.320007,438242
-93.760002,58.600002,961.040039,438246
-117.200005,58.600002,949.320007,438250
-105.480003,93.760002,949.320007,438254
-105.480003,82.040001,949.320007,438258
-117.200005,58.600002,961.040039,438262
-93.760002,70.32,961.040039,438266
-82.040001,82.040001,961.040039,438270
-93.760002,58.600002,949.320007,438274
-105.480003,82.040001,949.320007,438278
-93.760002,82.040001,949.320007,438282
-93.760002,70.32,949.320007,438286
-105.480003,70.32,949.320007,438290
-105.480003,46.880001,937.600037,438294
-105.480003,58.600002,937.600037,438298
-105.480003,70.32,961.040039,438302
-93.760002,58.600002,949.320007,438306
-93.760002,70.32,949.320007,438310
-117.200005,82.040001,972.76001,438314
-152.360001,82.040001,961.040039,438318
-128.919998,70.32,949.320007,438322
-140.639999,82.040001,949.320007,438326
-128.919998,58.600002,996.200012,438330
-117.200005,58.600002,984.480042,438334
-105.480003,58.600002,961.040039,438338
-105.480003,70.32,961.040039,438342
-93.760002,70.32,961.040039,438346
-93.760002,46.880001,961.040039,438350
-93.760002,58.600002,949.320007,438354
-105.480003,70.32,949.320007,438358
-105.480003,46.880001,949.320007,438362
-93.760002,58.600002,961.040039,438366
-93.760002,70.32,961.040039,438370
-105.480003,82.040001,937.600037,438374
-105.480003,82.040001,925.880005,438378
-93.760002,93.760002,937.600037,438382
-105.480003,82.040001,949.320007,438386
-93.760002,105.480003,937.600037,438390
-105.480003,117.200005,961.040039,438394
-93.760002,93.760002,949.320007,438398
-105.480003,82.040001,937.600037,438402
-105.480003,105.480003,949.320007,438406
-128.919998,105.480003,972.76001,438410
-105.480003,82.040001,961.040039,438414
-105.480003,82.040001,961.040039,438418
-117.200005,82.040001,972.76001,438422
-117.200005,58.600002,972.76001,438426
-117.200005,70.32,961.040039,438430
-128.919998,58.600002,949.320007,438434
-117.200005,46.880001,937.600037,438438
-105.480003,82.040001,972.76001,438442
-117.200005,105.480003,961.040039,438446
-128.919998,70.32,961.040039,438450
-128.919998,70.32,937.600037,438454
-117.200005,70.32,984.480042,438458
-117.200005,70.32,961.040039,438462
-117.200005,58.600002,961.040039,438466
-105.480003,82.040001,961.040039,438470
-93.760002,70.32,961.040039,438474
-117.200005,58.600002,949.320007,438478
-140.639999,58.600002,949.320007,438482
-140.639999,70.32,949.320007,438486
-140.639999,70.32,949.320007,438490
-105.480003,70.32,949.320007,438494
-117.200005,58.600002,949.320007,438498
-105.480003,82.040001,961.040039,438502
-105.480003,70.32,961.040039,438506
-105.480003,70.32,949.320007,438510
-93.760002,58.600002,961.040039,438514
-105.480003,58.600002,949.320007,438518
-93.760002,58.600002,949.320007,438522
-117.200005,105.480003,972.76001,438526
-105.480003,82.040001,961.040039,438530
-105.480003,105.480003,937.600037,438534
-105.480003,117.200005,949.320007,438538
-93.760002,93.760002,949.320007,438542
-105.480003,70.32,949.320007,438546
-117.200005,58.600002,972.76001,438550
-105.480003,70.32,972.76001,438554
-117.200005,82.040001,972.76001,438558
-117.200005,93.760002,972.76001,438562
-117.200005,58.600002,961.040039,438566
-105.480003,70.32,961.040039,438570
-105.480003,70.32,949.320007,438574
-105.480003,70.32,961.040039,438578
-93.760002,82.040001,949.320007,438582
-117.200005,70.32,961.040039,438586
-105.480003,82.040001,949.320007,438590
-105.480003,93.760002,949.320007,438594
-93.760002,46.880001,949.320007,438598
-105.480003,46.880001,972.76001,438602
-105.480003,58.600002,949.320007,438606
-93.760002,82.040001,949.320007,438610
-105.480003,93.760002,972.76001,438614
-82.040001,46.880001,949.320007,438618
-93.760002,70.32,949.320007,438622
-93.760002,70.32,961.040039,438626
-105.480003,82.040001,949.320007,438630
-93.760002,70.32,949.320007,438634
-105.480003,58.600002,949.320007,438638
-117.200005,82.040001,949.320007,438642
-105.480003,70.32,949.320007,438646
-105.480003,93.760002,949.320007,438650
-128.919998,93.760002,949.320007,438654
-117.200005,105.480003,972.76001,438658
-105.480003,82.040001,949.320007,438662
-117.200005,70.32,949.320007,438666
-105.480003,82.040001,972.76001,438670
-105.480003,35.16,949.320007,438674
-105.480003,58.600002,949.320007,438678
-93.760002,46.880001,961.040039,438682
-105.480003,23.440001,949.320007,438686
-128.919998,58.600002,961.040039,438690
-105.480003,70.32,937.600037,438694
-117.200005,70.32,937.600037,438698
-128.919998,82.040001,949.320007,438702
-117.200005,93.760002,949.320007,438706
-117.200005,58.600002,961.040039,438710
-128.919998,70.32,949.320007,438714
-105.480003,70.32,972.76001,438718
-117.200005,58.600002,949.320007,438722
-105.480003,70.32,949.320007,438726
-117.200005,58.600002,961.040039,438730
-105.480003,58.600002,937.600037,438734
-105.480003,70.32,937.600037,438738
-117.200005,70.32,937.600037,438742
-105.480003,82.040001,937.600037,438746
-93.760002,105.480003,937.600037,438750
-117.200005,93.760002,949.320007,438754
-93.760002,58.600002,949.320007,438758
-93.760002,70.32,972.76001,438762
-117.200005,70.32,984.480042,438766
-117.200005,82.040001,961.040039,438770
-105.480003,70.32,961.040039,438774
-105.480003,93.760002,949.320007,438778
-93.760002,82.040001,961.040039,438782
-93.760002,70.32,961.040039,438786
-105.480003,58.600002,961.040039,438790
-93.760002,70.32,961.040039,438794
-105.480003,58.600002,949.320007,438798
-93.760002,105.480003,937.600037,438802
-82.040001,93.760002,949.320007,438806
-93.760002,82.040001,972.76001,438810
-93.760002,93.760002,972.76001,438814
-105.480003,105.480003,961.040039,438818
-128.919998,46.880001,984.480042,438822
-117.200005,70.32,961.040039,438826
-128.919998,82.040001,949.320007,438830
-105.480003,105.480003,961.040039,438834
-105.480003,82.040001,961.040039,438838
-117.200005,82.040001,949.320007,438842
-117.200005,82.040001,949.320007,438846
-128.919998,58.600002,972.76001,438850
-117.200005,82.040001,961.040039,438854
-128.919998,70.32,937.600037,438858
-128.919998,70.32,949.320007,438862
-93.760002,82.040001,961.040039,438866
-105.480003,105.480003,949.320007,438870
-93.760002,82.040001,949.320007,438874
-105.480003,93.760002,972.76001,438878
-117.200005,82.040001,961.040039,438882
-105.480003,82.040001,984.480042,438886
-93.760002,105.480003,972.76001,438890
-93.760002,82.040001,961.040039,438894
-105.480003,82.040001,961.040039,438898
-93.760002,82.040001,961.040039,438902
-105.480003,70.32,949.320007,438906
-93.760002,58.600002,961.040039,438910
-117.200005,70.32,949.320007,438914
-117.200005,58.600002,961.040039,438918
-105.480003,58.600002,961.040039,438922
-117.200005,58.600002,972.76001,438926
-117.200005,70.32,949.320007,438930
-117.200005,46.880001,949.320007,438934
-117.200005,82.040001,961.040039,438938
-117.200005,70.32,961.040039,438942
-117.200005,46.880001,949.320007,438946
-105.480003,46.880001,961.040039,438950
-105.480003,58.600002,949.320007,438954
-140.639999,82.040001,961.040039,438958
-105.480003,82.040001,972.76001,438962
-93.760002,58.600002,972.76001,438966
-93.760002,82.040001,961.040039,438970
-105.480003,82.040001,972.76001,438974
-93.760002,58.600002,961.040039,438978
-93.760002,58.600002,949.320007,438982
-140.639999,70.32,961.040039,438986
-140.639999,70.32,949.320007,438990
-128.919998,82.040001,937.600037,438994
-105.480003,58.600002,949.320007,438998
-117.200005,82.040001,972.76001,439002
-128.919998,58.600002,972.76001,439006
-128.919998,70.32,972.76001,439010
-128.919998,46.880001,961.040039,439014
-117.200005,82.040001,937.600037,439018
-117.200005,82.040001,961.040039,439022
-117.200005,82.040001,949.320007,439026
-105.480003,82.040001,961.040039,439030
-128.919998,70.32,949.320007,439034
-105.480003,82.040001,961.040039,439038
-117.200005,58.600002,961.040039,439042
-105.480003,93.760002,961.040039,439046
-117.200005,82.040001,949.320007,439050
-105.480003,93.760002,937.600037,439054
-105.480003,82.040001,961.040039,439058
-93.760002,58.600002,949.320007,439062
-105.480003,58.600002,961.040039,439066
-117.200005,82.040001,961.040039,439070
-128.919998,58.600002,949.320007,439074
-117.200005,58.600002,961.040039,439078
-140.639999,58.600002,949.320007,439082
-117.200005,70.32,961.040039,439086
-117.200005,35.16,961.040039,439090
-105.480003,58.600002,949.320007,439094
-93.760002,82.040001,961.040039,439098
-105.480003,82.040001,961.040039,439102
-105.480003,82.040001,961.040039,439106
-105.480003,93.760002,961.040039,439110
-105.480003,70.32,949.320007,439114
-117.200005,93.760002,949.320007,439118
-105.480003,93.760002,949.320007,439122
-128.919998,82.040001,949.320007,439126
-105.480003,70.32,961.040039,439130
-93.760002,93.760002,949.320007,439134
-93.760002,105.480003,949.320007,439138
-105.480003,70.32,984.480042,439142
-117.200005,93.760002,961.040039,439146
-117.200005,93.760002,961.040039,439150
-117.200005,93.760002,949.320007,439154
-117.200005,93.760002,949.320007,439158
-117.200005,70.32,961.040039,439162
-117.200005,46.880001,949.320007,439166
-128.919998,70.32,961.040039,439170
-128.919998,46.880001,961.040039,439174
-140.639999,46.880001,961.040039,439178
-128.919998,70.32,937.600037,439182
-105.480003,70.32,937.600037,439186
-140.639999,82.040001,972.76001,439190
-105.480003,58.600002,961.040039,439194
-105.480003,82.040001,949.320007,439198
-93.760002,93.760002,949.320007,439202
-93.760002,70.32,961.040039,439206
-105.480003,93.760002,949.320007,439210
-105.480003,105.480003,937.600037,439214
-117.200005,70.32,961.040039,439218
-117.200005,70.32,961.040039,439222
-117.200005,70.32,961.040039,439226
-105.480003,46.880001,961.040039,439230
-117.200005,35.16,961.040039,439234
-105.480003,58.600002,949.320007,439238
-93.760002,58.600002,949.320007,439242
-93.760002,46.880001,949.320007,439246
-117.200005,82.040001,949.320007,439250
-105.480003,82.040001,961.040039,439254
-93.760002,82.040001,949.320007,439258
-117.200005,58.600002,937.600037,439262
-140.639999,82.040001,961.040039,439266
-140.639999,105.480003,937.600037,439270
-117.200005,93.760002,925.880005,439274
-105.480003,58.600002,961.040039,439278
-93.760002,82.040001,949.320007,439282
-105.480003,93.760002,949.320007,439286
-105.480003,82.040001,949.320007,439290
-105.480003,70.32,949.320007,439294
-93.760002,93.760002,961.040039,439298
-105.480003,70.32,949.320007,439302
-105.480003,70.32,961.040039,439306
-93.760002,58.600002,949.320007,439310
-93.760002,70.32,949.320007,439314
-105.480003,70.32,961.040039,439318
-105.480003,82.040001,949.320007,439322
-93.760002,58.600002,949.320007,439326
-93.760002,82.040001,972.76001,439330
-93.760002,93.760002,996.200012,439334
-93.760002,70.32,972.76001,439338
-93.760002,46.880001,972.76001,439342
-117.200005,70.32,984.480042,439346
-117.200005,70.32,972.76001,439350
-105.480003,82.040001,961.040039,439354
-93.760002,82.040001,949.320007,439358
-105.480003,70.32,949.320007,439362
-128.919998,58.600002,949.320007,439366
-128.919998,117.200005,961.040039,439370
-117.200005,105.480003,949.320007,439374
-93.760002,117.200005,949.320007,439378
-117.200005,93.760002,949.320007,439382
-105.480003,70.32,961.040039,439386
-105.480003,70.32,949.320007,439390
-93.760002,58.600002,949.320007,439394
-93.760002,82.040001,961.040039,439398
-93.760002,82.040001,961.040039,439402
-105.480003,93.760002,972.76001,439406
-105.480003,82.040001,961.040039,439410
-117.200005,82.040001,949.320007,439414
-105.480003,93.760002,949.320007,439418
-105.480003,70.32,972.76001,439422
-117.200005,82.040001,972.76001,439426
-117.200005,105.480003,961.040039,439430
-117.200005,93.760002,972.76001,439434
-105.480003,70.32,972.76001,439438
-117.200005,70.32,961.040039,439442
-117.200005,82.040001,961.040039,439446
-128.919998,93.760002,961.040039,439450
-105.480003,105.480003,972.76001,439454
-105.480003,93.760002,961.040039,439458
-93.760002,70.32,961.040039,439462
-117.200005,70.32,961.040039,439466
-105.480003,93.760002,949.320007,439470
-105.480003,70.32,961.040039,439474
-117.200005,82.040001,949.320007,439478
-117.200005,46.880001,961.040039,439482
-117.200005,58.600002,949.320007,439486
-117.200005,82.040001,961.040039,439490
-117.200005,105.480003,961.040039,439494
-140.639999,46.880001,949.320007,439498
-117.200005,70.32,949.320007,439502
-105.480003,70.32,949.320007,439506
-93.760002,82.040001,949.320007,439510
-93.760002,82.040001,949.320007,439514
-93.760002,93.760002,961.040039,439518
-105.480003,70.32,949.320007,439522
-105.480003,70.32,949.320007,439526
-93.760002,58.600002,949.320007,439530
-117.200005,82.040001,949.320007,439534
-117.200005,82.040001,949.320007,439538
-117.200005,105.480003,949.320007,439542
-93.760002,70.32,949.320007,439546
-105.480003,82.040001,961.040039,439550
-117.200005,82.040001,961.040039,439554
-105.480003,82.040001,961.040039,439558
-105.480003,82.040001,949.320007,439562
-117.200005,70.32,937.600037,439566
-105.480003,82.040001,937.600037,439570
-117.200005,82.040001,949.320007,439574
-117.200005,82.040001,949.320007,439578
-105.480003,70.32,949.320007,439582
-128.919998,70.32,961.040039,439586
-117.200005,70.32,984.480042,439590
-105.480003,46.880001,984.480042,439594
-117.200005,82.040001,949.320007,439598
-105.480003,35.16,949.320007,439602
-93.760002,58.600002,949.320007,439606
-105.480003,46.880001,972.76001,439610
-93.760002,70.32,961.040039,439614
-128.919998,70.32,949.320007,439618
-128.919998,58.600002,961.040039,439622
-105.480003,58.600002,949.320007,439626
-105.480003,82.040001,961.040039,439630
-117.200005,82.040001,961.040039,439634
-105.480003,70.32,937.600037,439638
-93.760002,58.600002,949.320007,439642
-128.919998,82.040001,961.040039,439646
-117.200005,70.32,949.320007,439650
-105.480003,46.880001,949.320007,439654
-93.760002,46.880001,949.320007,439658
-117.200005,46.880001,949.320007,439662
-117.200005,70.32,937.600037,439666
-105.480003,58.600002,937.600037,439670
-117.200005,70.32,961.040039,439674
-105.480003,82.040001,984.480042,439678
-128.919998,58.600002,961.040039,439682
-128.919998,82.040001,961.040039,439686
-117.200005,58.600002,961.040039,439690
-117.200005,46.880001,961.040039,439694
-105.480003,58.600002,961.040039,439698
-105.480003,105.480003,949.320007,439702
-105.480003,93.760002,937.600037,439706
-93.760002,70.32,937.600037,439710
-93.760002,82.040001,937.600037,439714
-93.760002,70.32,937.600037,439718
-105.480003,82.040001,949.320007,439722
-105.480003,93.760002,961.040039,439726
-128.919998,82.040001,949.320007,439730
-105.480003,82.040001,949.320007,439734
-93.760002,58.600002,961.040039,439738
-117.200005,58.600002,949.320007,439742
-105.480003,58.600002,961.040039,439746
-93.760002,82.040001,949.320007,439750
-93.760002,46.880001,937.600037,439754
-93.760002,70.32,949.320007,439758
-117.200005,58.600002,937.600037,439762
-105.480003,93.760002,949.320007,439766
-117.200005,70.32,961.040039,439770
-105.480003,46.880001,972.76001,439774
-105.480003,58.600002,961.040039,439778
-105.480003,82.040001,949.320007,439782
-105.480003,70.32,972.76001,439786
-93.760002,58.600002,949.320007,439790
-105.480003,46.880001,984.480042,439794
-117.200005,58.600002,961.040039,439798
-105.480003,82.040001,949.320007,439802
-117.200005,58.600002,949.320007,439806
-117.200005,58.600002,972.76001,439810
-105.480003,58.600002,961.040039,439814
-117.200005,58.600002,972.76001,439818
-105.480003,70.32,961.040039,439822
-128.919998,58.600002,961.040039,439826
-117.200005,93.760002,972.76001,439830
-128.919998,105.480003,961.040039,439834
-105.480003,93.760002,961.040039,439838
-128.919998,82.040001,996.200012,439842
-105.480003,70.32,996.200012,439846
-117.200005,70.32,972.76001,439850
-117.200005,82.040001,949.320007,439854
-93.760002,105.480003,949.320007,439858
-93.760002,82.040001,961.040039,439862
-105.480003,93.760002,949.320007,439866
-105.480003,58.600002,949.320007,439870
-93.760002,82.040001,961.040039,439874
-93.760002,58.600002,949.320007,439878
-105.480003,46.880001,961.040039,439882
-128.919998,105.480003,949.320007,439886
-105.480003,93.760002,937.600037,439890
-117.200005,105.480003,937.600037,439894
-140.639999,93.760002,937.600037,439898
-140.639999,70.32,949.320007,439902
-140.639999,70.32,961.040039,439906
-128.919998,70.32,949.320007,439910
-105.480003,82.040001,949.320007,439914
-105.480003,58.600002,972.76001,439918
-105.480003,82.040001,961.040039,439922
-93.760002,58.600002,949.320007,439926
-82.040001,46.880001,949.320007,439930
-117.200005,82.040001,972.76001,439934
-117.200005,70.32,961.040039,439938
-93.760002,70.32,949.320007,439942
-105.480003,70.32,961.040039,439946
-105.480003,58.600002,972.76001,439950
-105.480003,58.600002,961.040039,439954
-117.200005,82.040001,949.320007,439958
-140.639999,82.040001,961.040039,439962
-117.200005,82.040001,949.320007,439966
-105.480003,93.760002,972.76001,439970
-117.200005,46.880001,972.76001,439974
-105.480003,58.600002,984.480042,439978
-93.760002,70.32,972.76001,439982
-128.919998,70.32,972.76001,439986
-105.480003,93.760002,961.040039,439990
-105.480003,70.32,949.320007,439994
-117.200005,46.880001,961.040039,439998
-117.200005,70.32,949.320007,440002
-128.919998,70.32,961.040039,440006
-105.480003,93.760002,961.040039,440010
-93.760002,93.760002,949.320007,440014
-105.480003,82.040001,961.040039,440018
-93.760002,93.760002,949.320007,440022
-105.480003,82.040001,949.320007,440026
-117.200005,58.600002,972.76001,440030
-105.480003,70.32,961.040039,440034
-105.480003,93.760002,961.040039,440038
-105.480003,93.760002,949.320007,440042
-93.760002,70.32,949.320007,440046
-117.200005,46.880001,961.040039,440050
-93.760002,82.040001,937.600037,440054
-117.200005,93.760002,937.600037,440058
-105.480003,82.040001,961.040039,440062
-117.200005,70.32,937.600037,440066
-117.200005,70.32,937.600037,440070
-117.200005,93.760002,949.320007,440074
-117.200005,93.760002,961.040039,440078
-105.480003,93.760002,949.320007,440082
-93.760002,82.040001,949.320007,440086
-105.480003,93.760002,949.320007,440090
-93.760002,58.600002,961.040039,440094
-105.480003,82.040001,949.320007,440098
-105.480003,70.32,961.040039,440102
-93.760002,70.32,949.320007,440106
-93.760002,58.600002,949.320007,440110
-128.919998,58.600002,961.040039,440114
-93.760002,70.32,961.040039,440118
-117.200005,82.040001,961.040039,440122
-117.200005,70.32,961.040039,440126
-105.480003,58.600002,972.76001,440130
-105.480003,82.040001,961.040039,440134
-117.200005,82.040001,972.76001,440138
-117.200005,93.760002,961.040039,440142
-105.480003,82.040001,949.320007,440146
-105.480003,70.32,972.76001,440150
-93.760002,58.600002,972.76001,440154
-93.760002,82.040001,972.76001,440158
-105.480003,93.760002,949.320007,440162
-140.639999,82.040001,949.320007,440166
-140.639999,82.040001,949.320007,440170
-105.480003,58.600002,961.040039,440174
-117.200005,93.760002,961.040039,440178
-117.200005,70.32,949.320007,440182
-93.760002,58.600002,949.320007,440186
-117.200005,70.32,961.040039,440190
-128.919998,70.32,961.040039,440194
-117.200005,82.040001,961.040039,440198
-105.480003,70.32,949.320007,440202
-117.200005,82.040001,949.320007,440206
-117.200005,82.040001,949.320007,440210
-117.200005,70.32,961.040039,440214
-117.200005,82.040001,961.040039,440218
-105.480003,58.600002,972.76001,440222
-105.480003,70.32,961.040039,440226
-105.480003,46.880001,949.320007,440230
-105.480003,70.32,972.76001,440234
-93.760002,58.600002,972.76001,440238
-93.760002,93.760002,949.320007,440242
-93.760002,82.040001,937.600037,440246
-105.480003,93.760002,925.880005,440250
-93.760002,93.760002,937.600037,440254
-128.919998,117.200005,961.040039,440258
-117.200005,93.760002,949.320007,440262
-105.480003,82.040001,961.040039,440266
-93.760002,70.32,961.040039,440270
-105.480003,58.600002,949.320007,440274
-105.480003,58.600002,937.600037,440278
-105.480003,93.760002,937.600037,440282
-93.760002,82.040001,949.320007,440286
-93.760002,82.040001,949.320007,440290
-117.200005,93.760002,972.76001,440294
-105.480003,70.32,961.040039,440298
-105.480003,46.880001,949.320007,440302
-117.200005,82.040001,949.320007,440306
-105.480003,82.040001,972.76001,440310
-105.480003,82.040001,972.76001,440314
-105.480003,93.760002,961.040039,440318
-128.919998,93.760002,972.76001,440322
-93.760002,93.760002,972.76001,440326
-117.200005,93.760002,961.040039,440330
-152.360001,93.760002,949.320007,440334
-128.919998,82.040001,961.040039,440338
-105.480003,105.480003,984.480042,440342
-93.760002,117.200005,972.76001,440346
-105.480003,93.760002,949.320007,440350
-105.480003,58.600002,949.320007,440354
-105.480003,70.32,949.320007,440358
-117.200005,82.040001,961.040039,440362
-105.480003,58.600002,972.76001,440366
-128.919998,82.040001,972.76001,440370
-128.919998,93.760002,972.76001,440374
-105.480003,58.600002,961.040039,440378
-105.480003,70.32,972.76001,440382
-105.480003,105.480003,972.76001,440386
-105.480003,82.040001,996.200012,440390
-117.200005,58.600002,984.480042,440394
-105.480003,93.760002,949.320007,440398
-93.760002,82.040001,937.600037,440402
-105.480003,105.480003,937.600037,440406
-105.480003,93.760002,925.880005,440410
-105.480003,93.760002,949.320007,440414
-105.480003,70.32,937.600037,440418
-117.200005,105.480003,949.320007,440422
-117.200005,105.480003,961.040039,440426
-105.480003,93.760002,961.040039,440430
-93.760002,82.040001,961.040039,440434
-128.919998,82.040001,949.320007,440438
-105.480003,82.040001,949.320007,440442
-117.200005,58.600002,949.320007,440446
-128.919998,70.32,961.040039,440450
-93.760002,82.040001,937.600037,440454
-93.760002,70.32,925.880005,440458
-105.480003,70.32,949.320007,440462
-117.200005,70.32,949.320007,440466
-105.480003,70.32,949.320007,440470
-128.919998,105.480003,961.040039,440474
-105.480003,93.760002,937.600037,440478
-105.480003,82.040001,937.600037,440482
-117.200005,70.32,949.320007,440486
-128.919998,58.600002,961.040039,440490
-105.480003,46.880001,961.040039,440494
-105.480003,70.32,984.480042,440498
-93.760002,82.040001,984.480042,440502
-105.480003,70.32,961.040039,440506
-105.480003,58.600002,961.040039,440510
-105.480003,58.600002,949.320007,440514
-117.200005,82.040001,937.600037,440518
-117.200005,70.32,949.320007,440522
-105.480003,82.040001,961.040039,440526
-105.480003,58.600002,972.76001,440530
-93.760002,70.32,972.76001,440534
-117.200005,70.32,972.76001,440538
-117.200005,82.040001,972.76001,440542
-117.200005,58.600002,961.040039,440546
-117.200005,82.040001,949.320007,440550
-105.480003,58.600002,961.040039,440554
-93.760002,58.600002,961.040039,440558
-117.200005,82.040001,972.76001,440562
-128.919998,93.760002,984.480042,440566
-128.919998,93.760002,972.76001,440570
-117.200005,82.040001,961.040039,440574
-117.200005,70.32,949.320007,440578
-105.480003,82.040001,961.040039,440582
-128.919998,82.040001,972.76001,440586
-93.760002,105.480003,937.600037,440590
-93.760002,70.32,937.600037,440594
-93.760002,58.600002,925.880005,440598
-93.760002,58.600002,937.600037,440602
-93.760002,70.32,937.600037,440606
-105.480003,58.600002,961.040039,440610
-105.480003,58.600002,984.480042,440614
-93.760002,82.040001,961.040039,440618
-93.760002,82.040001,949.320007,440622
-105.480003,58.600002,972.76001,440626
-117.200005,70.32,961.040039,440630
-128.919998,82.040001,949.320007,440634
-93.760002,58.600002,949.320007,440638
-105.480003,70.32,949.320007,440642
-105.480003,82.040001,937.600037,440646
-117.200005,70.32,961.040039,440650
-128.919998,82.040001,949.320007,440654
-105.480003,93.760002,961.040039,440658
-117.200005,82.040001,925.880005,440662
-128.919998,46.880001,949.320007,440666
-105.480003,58.600002,949.320007,440670
-140.639999,70.32,972.76001,440674
-117.200005,82.040001,972.76001,440678
-105.480003,93.760002,972.76001,440682
-105.480003,58.600002,937.600037,440686
-117.200005,82.040001,937.600037,440690
-140.639999,70.32,937.600037,440694
-117.200005,93.760002,949.320007,440698
-117.200005,58.600002,949.320007,440702
-140.639999,93.760002,949.320007,440706
-117.200005,58.600002,949.320007,440710
-93.760002,70.32,949.320007,440714
-93.760002,58.600002,949.320007,440718
-93.760002,58.600002,949.320007,440722
-117.200005,35.16,949.320007,440726
-117.200005,35.16,961.040039,440730
-105.480003,46.880001,961.040039,440734
-105.480003,93.760002,961.040039,440738
-140.639999,58.600002,972.76001,440742
-117.200005,82.040001,972.76001,440746
-117.200005,117.200005,961.040039,440750
-117.200005,128.919998,949.320007,440754
-128.919998,105.480003,949.320007,440758
-128.919998,70.32,972.76001,440762
-128.919998,46.880001,972.76001,440766
-105.480003,58.600002,961.040039,440770
-105.480003,70.32,961.040039,440774
-117.200005,70.32,961.040039,440778
-128.919998,70.32,972.76001,440782
-93.760002,70.32,949.320007,440786
-117.200005,93.760002,961.040039,440790
-105.480003,82.040001,949.320007,440794
-105.480003,93.760002,961.040039,440798
-93.760002,82.040001,949.320007,440802
-117.200005,58.600002,961.040039,440806
-117.200005,58.600002,937.600037,440810
-93.760002,82.040001,925.880005,440814
-93.760002,93.760002,949.320007,440818
-105.480003,70.32,961.040039,440822
-105.480003,70.32,961.040039,440826
-105.480003,105.480003,961.040039,440830
-105.480003,82.040001,972.76001,440834
-117.200005,93.760002,972.76001,440838
-117.200005,82.040001,961.040039,440842
-117.200005,70.32,972.76001,440846
-117.200005,58.600002,961.040039,440850
-117.200005,82.040001,949.320007,440854
-117.200005,70.32,961.040039,440858
-128.919998,82.040001,961.040039,440862
-105.480003,82.040001,949.320007,440866
-105.480003,82.040001,949.320007,440870
-105.480003,82.040001,972.76001,440874
-93.760002,82.040001,972.76001,440878
-117.200005,58.600002,961.040039,440882
-128.919998,58.600002,972.76001,440886
-140.639999,82.040001,961.040039,440890
-128.919998,70.32,972.76001,440894
-128.919998,70.32,961.040039,440898
-105.480003,58.600002,949.320007,440902
-117.200005,82.040001,949.320007,440906
-105.480003,82.040001,961.040039,440910
-105.480003,93.760002,961.040039,440914
-117.200005,117.200005,949.320007,440918
-117.200005,93.760002,949.320007,440922
-93.760002,93.760002,949.320007,440926
-93.760002,58.600002,961.040039,440930
-93.760002,58.600002,961.040039,440934
-105.480003,58.600002,949.320007,440938
-105.480003,70.32,972.76001,440942
-105.480003,70.32,961.040039,440946
-128.919998,82.040001,949.320007,440950
-105.480003,70.32,972.76001,440954
-93.760002,46.880001,972.76001,440958
-105.480003,46.880001,949.320007,440962
-105.480003,70.32,961.040039,440966
-93.760002,58.600002,949.320007,440970
-117.200005,58.600002,961.040039,440974
-152.360001,70.32,961.040039,440978
-105.480003,70.32,949.320007,440982
-93.760002,70.32,961.040039,440986
-105.480003,82.040001,949.320007,440990
-117.200005,93.760002,961.040039,440994
-117.200005,82.040001,937.600037,440998
-105.480003,93.760002,949.320007,441002
-117.200005,82.040001,961.040039,441006
-128.919998,105.480003,961.040039,441010
-128.919998,117.200005,949.320007,441014
-93.760002,82.040001,961.040039,441018
-117.200005,82.040001,961.040039,441022
-128.919998,105.480003,937.600037,441026
-105.480003,70.32,949.320007,441030
-105.480003,70.32,949.320007,441034
-93.760002,82.040001,972.76001,441038
-105.480003,82.040001,961.040039,441042
-105.480003,58.600002,984.480042,441046
-105.480003,70.32,972.76001,441050
-105.480003,58.600002,961.040039,441054
-93.760002,82.040001,949.320007,441058
-105.480003,105.480003,937.600037,441062
-117.200005,93.760002,937.600037,441066
-128.919998,93.760002,937.600037,441070
-105.480003,105.480003,949.320007,441074
-117.200005,93.760002,961.040039,441078
-128.919998,93.760002,949.320007,441082
-117.200005,93.760002,925.880005,441086
-117.200005,93.760002,972.76001,441090
-117.200005,58.600002,949.320007,441094
-105.480003,70.32,961.040039,441098
-117.200005,82.040001,961.040039,441102
-128.919998,93.760002,949.320007,441106
-105.480003,46.880001,949.320007,441110
-93.760002,58.600002,949.320007,441114
-82.040001,70.32,949.320007,441118
-82.040001,70.32,949.320007,441122
-105.480003,70.32,949.320007,441126
-105.480003,58.600002,949.320007,441130
-117.200005,82.040001,961.040039,441134
-105.480003,82.040001,961.040039,441138
-128.919998,82.040001,972.76001,441142
-128.919998,82.040001,972.76001,441146
-128.919998,58.600002,972.76001,441150
-105.480003,58.600002,961.040039,441154
-105.480003,82.040001,972.76001,441158
-128.919998,105.480003,961.040039,441162
-105.480003,105.480003,949.320007,441166
-105.480003,58.600002,949.320007,441170
-93.760002,70.32,961.040039,441174
-93.760002,105.480003,961.040039,441178
-105.480003,128.919998,949.320007,441182
-93.760002,82.040001,949.320007,441186
-105.480003,82.040001,961.040039,441190
-117.200005,93.760002,949.320007,441194
-117.200005,82.040001,961.040039,441198
-117.200005,82.040001,937.600037,441202
-117.200005,70.32,961.040039,441206
-117.200005,70.32,949.320007,441210
-117.200005,70.32,949.320007,441214
-105.480003,58.600002,961.040039,441218
-105.480003,58.600002,961.040039,441222
-93.760002,46.880001,949.320007,441226
-105.480003,70.32,949.320007,441230
-105.480003,58.600002,961.040039,441234
-117.200005,93.760002,949.320007,441238
-117.200005,82.040001,949.320007,441242
-128.919998,82.040001,972.76001,441246
-117.200005,82.040001,961.040039,441250
-117.200005,58.600002,949.320007,441254
-117.200005,70.32,949.320007,441258
-128.919998,105.480003,961.040039,441262
-105.480003,82.040001,961.040039,441266
-93.760002,70.32,961.040039,441270
-105.480003,70.32,949.320007,441274
-117.200005,82.040001,949.320007,441278
-117.200005,70.32,949.320007,441282
-117.200005,70.32,961.040039,441286
-105.480003,93.760002,961.040039,441290
-105.480003,82.040001,949.320007,441294
-117.200005,58.600002,949.320007,441298
-117.200005,82.040001,961.040039,441302
-128.919998,70.32,961.040039,441306
-128.919998,70.32,949.320007,441310
-105.480003,70.32,949.320007,441314
-117.200005,46.880001,949.320007,441318
-117.200005,35.16,949.320007,441322
-117.200005,35.16,949.320007,441326
-105.480003,46.880001,961.040039,441330
-105.480003,58.600002,949.320007,441334
-117.200005,58.600002,961.040039,441338
-117.200005,70.32,949.320007,441342
-105.480003,46.880001,937.600037,441346
-105.480003,82.040001,949.320007,441350
-105.480003,70.32,949.320007,441354
-105.480003,82.040001,949.320007,441358
-117.200005,128.919998,949.320007,441362
-117.200005,70.32,961.040039,441366
-117.200005,70.32,972.76001,441370
-93.760002,58.600002,961.040039,441374
-105.480003,93.760002,949.320007,441378
-105.480003,93.760002,949.320007,441382
-105.480003,70.32,949.320007,441386
-105.480003,82.040001,961.040039,441390
-105.480003,58.600002,949.320007,441394
-105.480003,70.32,972.76001,441398
-93.760002,58.600002,972.76001,441402
-105.480003,70.32,961.040039,441406
-105.480003,117.200005,961.040039,441410
-93.760002,93.760002,961.040039,441414
-82.040001,93.760002,972.76001,441418
-82.040001,58.600002,949.320007,441422
-105.480003,70.32,984.480042,441426
-117.200005,82.040001,961.040039,441430
-117.200005,105.480003,949.320007,441434
-140.639999,82.040001,961.040039,441438
-152.360001,82.040001,961.040039,441442
-117.200005,70.32,961.040039,441446
-105.480003,82.040001,949.320007,441450
-117.200005,82.040001,949.320007,441454
-117.200005,82.040001,961.040039,441458
-117.200005,70.32,972.76001,441462
-105.480003,82.040001,972.76001,441466
-93.760002,93.760002,961.040039,441470
-93.760002,82.040001,961.040039,441474
-128.919998,82.040001,961.040039,441478
-117.200005,93.760002,984.480042,441482
-117.200005,58.600002,949.320007,441486
-128.919998,58.600002,961.040039,441490
-117.200005,70.32,949.320007,441494
-117.200005,82.040001,949.320007,441498
-128.919998,82.040001,949.320007,441502
-105.480003,93.760002,961.040039,441506
-93.760002,70.32,949.320007,441510
-93.760002,82.040001,949.320007,441514
-117.200005,93.760002,937.600037,441518
-117.200005,82.040001,937.600037,441522
-117.200005,58.600002,937.600037,441526
-105.480003,93.760002,949.320007,441530
-93.760002,93.760002,949.320007,441534
-105.480003,46.880001,949.320007,441538
-105.480003,58.600002,937.600037,441542
-117.200005,70.32,937.600037,441546
-105.480003,58.600002,937.600037,441550
-117.200005,82.040001,937.600037,441554
-117.200005,93.760002,937.600037,441558
-117.200005,82.040001,961.040039,441562
-117.200005,82.040001,972.76001,441566
-117.200005,70.32,972.76001,441570
-117.200005,46.880001,949.320007,441574
-128.919998,46.880001,949.320007,441578
-105.480003,58.600002,949.320007,441582
-93.760002,70.32,996.200012,441586
-93.760002,58.600002,972.76001,441590
-105.480003,58.600002,972.76001,441594
-93.760002,82.040001,961.040039,441598
-117.200005,70.32,961.040039,441602
-105.480003,70.32,937.600037,441606
-93.760002,70.32,925.880005,441610
-105.480003,70.32,949.320007,441614
-93.760002,82.040001,949.320007,441618
-117.200005,70.32,949.320007,441622
-128.919998,70.32,949.320007,441626
-128.919998,70.32,961.040039,441630
-128.919998,82.040001,972.76001,441634
-117.200005,93.760002,972.76001,441638
-105.480003,82.040001,972.76001,441642
-105.480003,93.760002,961.040039,441646
-117.200005,82.040001,949.320007,441650
-117.200005,70.32,961.040039,441654
-140.639999,58.600002,949.320007,441658
-105.480003,70.32,949.320007,441662
-105.480003,58.600002,961.040039,441666
-117.200005,70.32,949.320007,441670
-105.480003,82.040001,949.320007,441674
-105.480003,93.760002,972.76001,441678
-117.200005,58.600002,961.040039,441682
-105.480003,82.040001,949.320007,441686
-117.200005,70.32,972.76001,441690
-117.200005,58.600002,961.040039,441694
-105.480003,58.600002,949.320007,441698
-93.760002,58.600002,961.040039,441702
-105.480003,58.600002,972.76001,441706
-93.760002,70.32,961.040039,441710
-117.200005,105.480003,972.76001,441714
-105.480003,105.480003,949.320007,441718
-105.480003,105.480003,949.320007,441722
-93.760002,93.760002,972.76001,441726
-105.480003,82.040001,961.040039,441730
-117.200005,93.760002,949.320007,441734
-105.480003,82.040001,937.600037,441738
-105.480003,105.480003,937.600037,441742
-105.480003,70.32,949.320007,441746
-105.480003,58.600002,961.040039,441750
-105.480003,70.32,949.320007,441754
-105.480003,93.760002,961.040039,441758
-105.480003,70.32,972.76001,441762
-105.480003,70.32,961.040039,441766
-105.480003,70.32,949.320007,441770
-105.480003,82.040001,984.480042,441774
-117.200005,105.480003,961.040039,441778
-117.200005,93.760002,937.600037,441782
-117.200005,70.32,937.600037,441786
-117.200005,82.040001,961.040039,441790
-105.480003,93.760002,961.040039,441794
-93.760002,70.32,949.320007,441798
-93.760002,70.32,961.040039,441802
-105.480003,58.600002,961.040039,441806
-117.200005,82.040001,961.040039,441810
-105.480003,82.040001,949.320007,441814
-93.760002,105.480003,961.040039,441818
-105.480003,82.040001,949.320007,441822
-105.480003,93.760002,984.480042,441826
-105.480003,46.880001,949.320007,441830
-117.200005,58.600002,972.76001,441834
-117.200005,82.040001,972.76001,441838
-105.480003,58.600002,984.480042,441842
-128.919998,70.32,961.040039,441846
-128.919998,70.32,972.76001,441850
-140.639999,70.32,961.040039,441854
-105.480003,82.040001,949.320007,441858
-105.480003,93.760002,972.76001,441862
-117.200005,82.040001,984.480042,441866
-128.919998,82.040001,972.76001,441870
-128.919998,82.040001,972.76001,441874
-128.919998,82.040001,949.320007,441878
-105.480003,58.600002,972.76001,441882
-93.760002,70.32,961.040039,441886
-105.480003,82.040001,972.76001,441890
-105.480003,105.480003,972.76001,441894
-93.760002,105.480003,972.76001,441898
-93.760002,70.32,961.040039,441902
-93.760002,70.32,972.76001,441906
-105.480003,82.040001,961.040039,441910
-105.480003,93.760002,972.76001,441914
-140.639999,105.480003,949.320007,441918
-117.200005,82.040001,949.320007,441922
-117.200005,58.600002,961.040039,441926
-117.200005,46.880001,949.320007,441930
-117.200005,70.32,949.320007,441934
-117.200005,58.600002,961.040039,441938
-117.200005,58.600002,961.040039,441942
-93.760002,82.040001,949.320007,441946
-117.200005,58.600002,961.040039,441950
-117.200005,58.600002,949.320007,441954
-117.200005,82.040001,961.040039,441958
-105.480003,82.040001,949.320007,441962
-117.200005,82.040001,972.76001,441966
-128.919998,93.760002,972.76001,441970
-105.480003,70.32,972.76001,441974
-93.760002,58.600002,961.040039,441978
-93.760002,82.040001,949.320007,441982
-93.760002,70.32,949.320007,441986
-117.200005,70.32,949.320007,441990
-93.760002,70.32,949.320007,441994
-105.480003,58.600002,972.76001,441998
-105.480003,70.32,949.320007,442002
-117.200005,82.040001,937.600037,442006
-117.200005,93.760002,937.600037,442010
-117.200005,82.040001,949.320007,442014
-117.200005,46.880001,972.76001,442018
-105.480003,58.600002,937.600037,442022
-105.480003,82.040001,961.040039,442026
-128.919998,58.600002,984.480042,442030
-105.480003,70.32,949.320007,442034
-93.760002,46.880001,949.320007,442038
-93.760002,82.040001,961.040039,442042
-105.480003,70.32,961.040039,442046
-105.480003,82.040001,949.320007,442050
-93.760002,82.040001,925.880005,442054
-117.200005,82.040001,961.040039,442058
-128.919998,46.880001,949.320007,442062
-128.919998,58.600002,949.320007,442066
-117.200005,35.16,949.320007,442070
-105.480003,58.600002,949.320007,442074
-105.480003,58.600002,937.600037,442078
-93.760002,82.040001,949.320007,442082
-93.760002,93.760002,961.040039,442086
-105.480003,82.040001,949.320007,442090
-117.200005,70.32,949.320007,442094
-93.760002,82.040001,949.320007,442098
-105.480003,93.760002,937.600037,442102
-105.480003,58.600002,949.320007,442106
-105.480003,46.880001,949.320007,442110
-128.919998,82.040001,949.320007,442114
-128.919998,70.32,961.040039,442118
-128.919998,93.760002,972.76001,442122
-128.919998,70.32,961.040039,442126
-105.480003,70.32,949.320007,442130
-105.480003,93.760002,961.040039,442134
-105.480003,70.32,925.880005,442138
-105.480003,70.32,949.320007,442142
-93.760002,93.760002,972.76001,442146
-117.200005,82.040001,961.040039,442150
-128.919998,82.040001,949.320007,442154
-117.200005,105.480003,961.040039,442158
-128.919998,93.760002,949.320007,442162
-105.480003,93.760002,961.040039,442166
-117.200005,93.760002,961.040039,442170
-128.919998,93.760002,961.040039,442174
-105.480003,105.480003,937.600037,442178
-117.200005,70.32,949.320007,442182
-117.200005,70.32,961.040039,442186
-105.480003,82.040001,961.040039,442190
-93.760002,82.040001,961.040039,442194
-93.760002,82.040001,961.040039,442198
-117.200005,70.32,949.320007,442202
-105.480003,93.760002,972.76001,442206
-105.480003,70.32,961.040039,442210
-105.480003,93.760002,949.320007,442214
-105.480003,82.040001,949.320007,442218
-105.480003,93.760002,972.76001,442222
-117.200005,93.760002,972.76001,442226
-117.200005,82.040001,961.040039,442230
-105.480003,93.760002,949.320007,442234
-140.639999,93.760002,949.320007,442238
-117.200005,70.32,972.76001,442242
-117.200005,82.040001,961.040039,442246
-105.480003,70.32,949.320007,442250
-93.760002,82.040001,949.320007,442254
-105.480003,82.040001,961.040039,442258
-105.480003,82.040001,937.600037,442262
-105.480003,70.32,961.040039,442266
-105.480003,58.600002,961.040039,442270
-105.480003,46.880001,949.320007,442274
-128.919998,46.880001,961.040039,442278
-140.639999,105.480003,949.320007,442282
-152.360001,93.760002,949.320007,442286
-105.480003,93.760002,949.320007,442290
-105.480003,93.760002,961.040039,442294
-105.480003,93.760002,972.76001,442298
-117.200005,82.040001,949.320007,442302
-117.200005,70.32,949.320007,442306
-128.919998,93.760002,949.320007,442310
-105.480003,93.760002,949.320007,442314
-105.480003,70.32,961.040039,442318
-105.480003,70.32,949.320007,442322
-105.480003,58.600002,949.320007,442326
-117.200005,70.32,949.320007,442330
-105.480003,58.600002,949.320007,442334
-93.760002,70.32,961.040039,442338
-117.200005,70.32,961.040039,442342
-117.200005,93.760002,961.040039,442346
-117.200005,93.760002,961.040039,442350
-128.919998,93.760002,949.320007,442354
-93.760002,93.760002,961.040039,442358
-93.760002,70.32,961.040039,442362
-105.480003,105.480003,972.76001,442366
-93.760002,93.760002,984.480042,442370
-117.200005,93.760002,972.76001,442374
-105.480003,93.760002,949.320007,442378
-105.480003,70.32,972.76001,442382
-93.760002,58.600002,961.040039,442386
-117.200005,70.32,937.600037,442390
-105.480003,82.040001,972.76001,442394
-93.760002,105.480003,961.040039,442398
-117.200005,93.760002,949.320007,442402
-140.639999,117.200005,949.320007,442406
-128.919998,93.760002,961.040039,442410
-105.480003,70.32,949.320007,442414
-93.760002,58.600002,972.76001,442418
-93.760002,82.040001,949.320007,442422
-105.480003,82.040001,972.76001,442426
-117.200005,82.040001,949.320007,442430
-117.200005,70.32,949.320007,442434
-128.919998,70.32,949.320007,442438
-117.200005,46.880001,961.040039,442442
-105.480003,35.16,949.320007,442446
-117.200005,58.600002,961.040039,442450
-105.480003,82.040001,961.040039,442454
-105.480003,82.040001,949.320007,442458
-117.200005,105.480003,949.320007,442462
-117.200005,58.600002,949.320007,442466
-128.919998,117.200005,972.76001,442470
-117.200005,93.760002,972.76001,442474
-105.480003,58.600002,949.320007,442478
-105.480003,93.760002,961.040039,442482
-117.200005,93.760002,949.320007,442486
-128.919998,82.040001,949.320007,442490
-117.200005,93.760002,949.320007,442494
-105.480003,82.040001,949.320007,442498
-105.480003,70.32,961.040039,442502
-105.480003,82.040001,949.320007,442506
-93.760002,82.040001,949.320007,442510
-105.480003,70.32,949.320007,442514
-93.760002,58.600002,949.320007,442518
-105.480003,46.880001,961.040039,442522
-117.200005,46.880001,949.320007,442526
-117.200005,70.32,972.76001,442530
-105.480003,46.880001,972.76001,442534
-105.480003,35.16,972.76001,442538
-117.200005,58.600002,961.040039,442542
-128.919998,93.760002,961.040039,442546
-117.200005,46.880001,961.040039,442550
-117.200005,58.600002,949.320007,442554
-105.480003,70.32,961.040039,442558
-117.200005,93.760002,949.320007,442562
-117.200005,82.040001,949.320007,442566
-105.480003,93.760002,972.76001,442570
-105.480003,46.880001,972.76001,442574
-105.480003,70.32,972.76001,442578
-105.480003,46.880001,972.76001,442582
-105.480003,35.16,961.040039,442586
-117.200005,70.32,949.320007,442590
-117.200005,58.600002,961.040039,442594
-93.760002,70.32,984.480042,442598
-105.480003,46.880001,972.76001,442602
-117.200005,70.32,972.76001,442606
-117.200005,93.760002,961.040039,442610
-105.480003,82.040001,937.600037,442614
-105.480003,82.040001,961.040039,442618
-105.480003,58.600002,949.320007,442622
-93.760002,105.480003,961.040039,442626
-93.760002,82.040001,949.320007,442630
-93.760002,70.32,961.040039,442634
-93.760002,70.32,949.320007,442638
-105.480003,70.32,961.040039,442642
-105.480003,70.32,961.040039,442646
-105.480003,70.32,961.040039,442650
-105.480003,93.760002,961.040039,442654
-93.760002,70.32,961.040039,442658
-105.480003,82.040001,961.040039,442662
-128.919998,70.32,949.320007,442666
-117.200005,58.600002,961.040039,442670
-117.200005,70.32,949.320007,442674
-117.200005,70.32,961.040039,442678
-105.480003,82.040001,937.600037,442682
-117.200005,70.32,937.600037,442686
-93.760002,82.040001,972.76001,442690
-117.200005,93.760002,961.040039,442694
-117.200005,82.040001,949.320007,442698
-117.200005,70.32,949.320007,442702
-105.480003,70.32,961.040039,442706
-128.919998,58.600002,961.040039,442710
-117.200005,70.32,949.320007,442714
-117.200005,70.32,949.320007,442718
-105.480003,70.32,949.320007,442722
-93.760002,58.600002,949.320007,442726
-105.480003,58.600002,949.320007,442730
-117.200005,70.32,961.040039,442734
-117.200005,46.880001,961.040039,442738
-117.200005,58.600002,949.320007,442742
-128.919998,93.760002,961.040039,442746
-117.200005,70.32,961.040039,442750
-105.480003,82.040001,949.320007,442754
-105.480003,70.32,949.320007,442758
-105.480003,93.760002,961.040039,442762
-117.200005,93.760002,949.320007,442766
-117.200005,58.600002,949.320007,442770
-117.200005,58.600002,949.320007,442774
-117.200005,82.040001,949.320007,442778
-105.480003,105.480003,961.040039,442782
-128.919998,93.760002,949.320007,442786
-117.200005,82.040001,949.320007,442790
-117.200005,93.760002,972.76001,442794
-128.919998,82.040001,961.040039,442798
-105.480003,93.760002,984.480042,442802
-117.200005,70.32,961.040039,442806
-93.760002,58.600002,972.76001,442810
-93.760002,58.600002,949.320007,442814
-105.480003,70.32,949.320007,442818
-105.480003,46.880001,961.040039,442822
-117.200005,35.16,961.040039,442826
-105.480003,46.880001,961.040039,442830
-117.200005,58.600002,961.040039,442834
-105.480003,70.32,961.040039,442838
-105.480003,70.32,949.320007,442842
-93.760002,58.600002,949.320007,442846
-117.200005,58.600002,949.320007,442850
-128.919998,82.040001,961.040039,442854
-128.919998,82.040001,961.040039,442858
-105.480003,93.760002,961.040039,442862
-93.760002,70.32,949.320007,442866
-105.480003,70.32,949.320007,442870
-93.760002,70.32,961.040039,442874
-117.200005,58.600002,961.040039,442878
-117.200005,70.32,949.320007,442882
-117.200005,46.880001,961.040039,442886
-105.480003,70.32,949.320007,442890
-93.760002,58.600002,937.600037,442894
-93.760002,58.600002,949.320007,442898
-105.480003,70.32,949.320007,442902
-128.919998,58.600002,949.320007,442906
-117.200005,93.760002,949.320007,442910
-117.200005,58.600002,972.76001,442914
-105.480003,70.32,972.76001,442918
-105.480003,93.760002,972.76001,442922
-105.480003,70.32,961.040039,442926
-105.480003,93.760002,961.040039,442930
-117.200005,82.040001,961.040039,442934
-128.919998,82.040001,949.320007,442938
-128.919998,82.040001,972.76001,442942
-117.200005,82.040001,961.040039,442946
-128.919998,93.760002,961.040039,442950
-117.200005,105.480003,984.480042,442954
-93.760002,105.480003,961.040039,442958
-117.200005,105.480003,925.880005,442962
-105.480003,93.760002,961.040039,442966
-117.200005,82.040001,949.320007,442970
-128.919998,93.760002,949.320007,442974
-105.480003,70.32,949.320007,442978
-117.200005,70.32,949.320007,442982
-128.919998,70.32,949.320007,442986
-140.639999,70.32,961.040039,442990
-140.639999,93.760002,949.320007,442994
-105.480003,82.040001,949.320007,442998
-105.480003,70.32,961.040039,443002
-117.200005,58.600002,961.040039,443006
-117.200005,58.600002,961.040039,443010
-128.919998,82.040001,961.040039,443014
-105.480003,82.040001,949.320007,443018
-117.200005,93.760002,961.040039,443022
-117.200005,70.32,949.320007,443026
-117.200005,70.32,961.040039,443030
-117.200005,58.600002,949.320007,443034
-117.200005,82.040001,949.320007,443038
-117.200005,46.880001,949.320007,443042
-128.919998,58.600002,949.320007,443046
-117.200005,70.32,949.320007,443050
-105.480003,70.32,949.320007,443054
-93.760002,70.32,949.320007,443058
-93.760002,58.600002,961.040039,443062
-93.760002,58.600002,949.320007,443066
-93.760002,70.32,949.320007,443070
-128.919998,58.600002,949.320007,443074
-105.480003,58.600002,937.600037,443078
-117.200005,58.600002,949.320007,443082
-117.200005,58.600002,961.040039,443086
-105.480003,70.32,949.320007,443090
-93.760002,93.760002,961.040039,443094
-117.200005,70.32,961.040039,443098
-93.760002,82.040001,961.040039,443102
-105.480003,82.040001,949.320007,443106
-105.480003,70.32,972.76001,443110
-105.480003,105.480003,961.040039,443114
-105.480003,46.880001,937.600037,443118
-93.760002,46.880001,937.600037,443122
-105.480003,70.32,961.040039,443126
-117.200005,70.32,961.040039,443130
-117.200005,46.880001,949.320007,443134
-105.480003,70.32,949.320007,443138
-93.760002,70.32,949.320007,443142
-93.760002,58.600002,961.040039,443146
-117.200005,82.040001,961.040039,443150
-105.480003,58.600002,961.040039,443154
-105.480003,82.040001,949.320007,443158
-117.200005,70.32,972.76001,443162
-105.480003,82.040001,972.76001,443166
-117.200005,82.040001,996.200012,443170
-117.200005,70.32,961.040039,443174
-117.200005,46.880001,949.320007,443178
-105.480003,46.880001,949.320007,443182
-117.200005,70.32,949.320007,443186
-117.200005,82.040001,949.320007,443190
-105.480003,105.480003,949.320007,443194
-93.760002,82.040001,949.320007,443198
-117.200005,105.480003,949.320007,443202
-105.480003,93.760002,949.320007,443206
-117.200005,70.32,949.320007,443210
-117.200005,82.040001,961.040039,443214
-105.480003,82.040001,949.320007,443218
-105.480003,70.32,961.040039,443222
-105.480003,46.880001,949.320007,443226
-128.919998,70.32,949.320007,443230
-128.919998,58.600002,961.040039,443234
-105.480003,46.880001,949.320007,443238
-93.760002,46.880001,949.320007,443242
-140.639999,35.16,937.600037,443246
-128.919998,46.880001,961.040039,443250
-128.919998,46.880001,937.600037,443254
-140.639999,70.32,949.320007,443258
-140.639999,82.040001,961.040039,443262
-117.200005,82.040001,949.320007,443266
-117.200005,82.040001,949.320007,443270
-93.760002,93.760002,961.040039,443274
-93.760002,82.040001,961.040039,443278
-105.480003,93.760002,961.040039,443282
-105.480003,93.760002,961.040039,443286
-105.480003,93.760002,961.040039,443290
-93.760002,82.040001,961.040039,443294
-117.200005,70.32,949.320007,443298
-117.200005,70.32,925.880005,443302
-117.200005,46.880001,949.320007,443306
-117.200005,70.32,949.320007,443310
-105.480003,82.040001,949.320007,443314
-117.200005,93.760002,937.600037,443318
-117.200005,93.760002,949.320007,443322
