accelX,accelY,accelZ,timestamp
-124.800003,27.300001,945.75,96002
-134.550003,42.900002,947.700012,96006
-120.900002,37.049999,1012.050049,96010
-132.600006,37.049999,988.650024,96014
-124.800003,29.25,1006.200012,96018
-130.650009,27.300001,967.200012,96022
-126.75,33.150002,978.900024,96026
-124.800003,33.150002,978.900024,96030
-132.600006,27.300001,994.5,96034
-130.650009,33.150002,982.800049,96038
-124.800003,33.150002,978.900024,96042
-132.600006,33.150002,973.050049,96046
-128.699997,40.950001,990.600037,96050
-128.699997,39,998.400024,96054
-130.650009,31.200001,1006.200012,96058
-122.850006,35.100002,971.100037,96062
-115.050003,31.200001,969.150024,96066
-124.800003,35.100002,971.100037,96070
-124.800003,33.150002,984.75,96074
-128.699997,37.049999,984.75,96078
-126.75,31.200001,988.650024,96082
-126.75,29.25,976.950012,96086
-130.650009,31.200001,976.950012,96090
-126.75,29.25,982.800049,96094
-126.75,29.25,986.700012,96098
-124.800003,29.25,975,96102
-126.75,27.300001,978.900024,96106
-126.75,35.100002,969.150024,96110
-130.650009,37.049999,969.150024,96114
-128.699997,35.100002,986.700012,96118
-128.699997,37.049999,988.650024,96122
-124.800003,29.25,980.850037,96126
-126.75,31.200001,978.900024,96130
-124.800003,27.300001,988.650024,96134
-126.75,31.200001,984.75,96138
-124.800003,27.300001,980.850037,96142
-128.699997,29.25,986.700012,96146
-126.75,23.400002,982.800049,96150
-126.75,25.35,973.050049,96154
-122.850006,23.400002,975,96158
-118.950005,35.100002,984.75,96162
-156,35.100002,982.800049,96166
-128.699997,31.200001,986.700012,96170
-130.650009,27.300001,982.800049,96174
-130.650009,27.300001,976.950012,96178
-128.699997,31.200001,982.800049,96182
-132.600006,29.25,975,96186
-126.75,35.100002,975,96190
-124.800003,37.049999,976.950012,96194
-130.650009,31.200001,978.900024,96198
-124.800003,25.35,976.950012,96202
-132.600006,35.100002,976.950012,96206
-130.650009,33.150002,986.700012,96210
-126.75,33.150002,988.650024,96214
-120.900002,35.100002,986.700012,96218
-128.699997,31.200001,982.800049,96222
-128.699997,27.300001,982.800049,96226
-124.800003,29.25,978.900024,96230
-128.699997,33.150002,980.850037,96234
-134.550003,31.200001,978.900024,96238
-128.699997,31.200001,980.850037,96242
-128.699997,27.300001,986.700012,96246
-128.699997,25.35,984.75,96250
-130.650009,29.25,980.850037,96254
-126.75,40.950001,984.75,96258
-132.600006,37.049999,986.700012,96262
-132.600006,31.200001,980.850037,96266
-126.75,25.35,978.900024,96270
-120.900002,31.200001,976.950012,96274
-122.850006,31.200001,980.850037,96278
-124.800003,31.200001,986.700012,96282
-132.600006,29.25,986.700012,96286
-128.699997,31.200001,980.850037,96290
-118.950005,35.100002,980.850037,96294
-126.75,35.100002,978.900024,96298
-126.75,37.049999,994.5,96302
-124.800003,33.150002,986.700012,96306
-126.75,42.900002,980.850037,96310
-126.75,33.150002,982.800049,96314
-130.650009,33.150002,978.900024,96318
-132.600006,29.25,975,96322
-130.650009,35.100002,976.950012,96326
-130.650009,31.200001,984.75,96330
-128.699997,31.200001,984.75,96334
-128.699997,31.200001,975,96338
-124.800003,31.200001,978.900024,96342
-126.75,33.150002,980.850037,96346
-126.75,27.300001,984.75,96350
-126.75,35.100002,982.800049,96354
-126.75,29.25,984.75,96358
-130.650009,39,986.700012,96362
-126.75,33.150002,978.900024,96366
-124.800003,31.200001,980.850037,96370
-124.800003,31.200001,990.600037,96374
-130.650009,35.100002,982.800049,96378
-128.699997,31.200001,980.850037,96382
-117,37.049999,980.850037,96386
-120.900002,39,975,96390
-126.75,35.100002,978.900024,96394
-128.699997,31.200001,978.900024,96398
-130.650009,29.25,980.850037,96402
-130.650009,31.200001,980.850037,96406
-130.650009,35.100002,984.75,96410
-126.75,35.100002,980.850037,96414
-128.699997,27.300001,978.900024,96418
-130.650009,25.35,976.950012,96422
-128.699997,31.200001,975,96426
-126.75,37.049999,980.850037,96430
-124.800003,31.200001,980.850037,96434
-124.800003,31.200001,978.900024,96438
-124.800003,35.100002,982.800049,96442
-122.850006,33.150002,986.700012,96446
-124.800003,31.200001,980.850037,96450
-120.900002,31.200001,980.850037,96454
-128.699997,29.25,982.800049,96458
-128.699997,31.200001,980.850037,96462
-124.800003,33.150002,980.850037,96466
-124.800003,35.100002,982.800049,96470
-130.650009,35.100002,976.950012,96474
-132.600006,33.150002,980.850037,96478
-126.75,37.049999,978.900024,96482
-132.600006,39,982.800049,96486
-124.800003,39,975,96490
-126.75,39,982.800049,96494
-126.75,31.200001,986.700012,96498
-124.800003,37.049999,982.800049,96502
-126.75,33.150002,978.900024,96506
-122.850006,31.200001,976.950012,96510
-124.800003,29.25,969.150024,96514
-122.850006,31.200001,976.950012,96518
-126.75,35.100002,978.900024,96522
-124.800003,39,975,96526
-128.699997,33.150002,976.950012,96530
-128.699997,37.049999,978.900024,96534
-126.75,31.200001,980.850037,96538
-124.800003,39,973.050049,96542
-126.75,31.200001,973.050049,96546
-128.699997,29.25,975,96550
-124.800003,27.300001,982.800049,96554
-130.650009,31.200001,982.800049,96558
-128.699997,33.150002,984.75,96562
-132.600006,35.100002,982.800049,96566
-124.800003,33.150002,975,96570
-124.800003,29.25,978.900024,96574
-126.75,33.150002,982.800049,96578
-130.650009,37.049999,982.800049,96582
-126.75,35.100002,986.700012,96586
-126.75,35.100002,978.900024,96590
-120.900002,37.049999,973.050049,96594
-126.75,29.25,984.75,96598
-152.100006,31.200001,988.650024,96602
-126.75,33.150002,982.800049,96606
-128.699997,35.100002,973.050049,96610
-128.699997,29.25,978.900024,96614
-122.850006,33.150002,980.850037,96618
-122.850006,31.200001,980.850037,96622
-122.850006,29.25,973.050049,96626
-128.699997,35.100002,973.050049,96630
-128.699997,33.150002,978.900024,96634
-132.600006,35.100002,982.800049,96638
-130.650009,27.300001,984.75,96642
-128.699997,31.200001,984.75,96646
-128.699997,29.25,982.800049,96650
-128.699997,35.100002,982.800049,96654
-122.850006,33.150002,984.75,96658
-122.850006,33.150002,980.850037,96662
-130.650009,39,978.900024,96666
-124.800003,35.100002,980.850037,96670
-128.699997,33.150002,986.700012,96674
-126.75,31.200001,988.650024,96678
-124.800003,31.200001,986.700012,96682
-128.699997,33.150002,984.75,96686
-128.699997,29.25,986.700012,96690
-126.75,39,978.900024,96694
-128.699997,39,978.900024,96698
-126.75,25.35,980.850037,96702
-122.850006,31.200001,975,96706
-126.75,27.300001,986.700012,96710
-128.699997,27.300001,984.75,96714
-130.650009,29.25,986.700012,96718
-128.699997,29.25,982.800049,96722
-132.600006,31.200001,982.800049,96726
-126.75,35.100002,980.850037,96730
-126.75,35.100002,986.700012,96734
-128.699997,29.25,984.75,96738
-126.75,29.25,982.800049,96742
-134.550003,37.049999,976.950012,96746
-126.75,31.200001,975,96750
-128.699997,31.200001,984.75,96754
-126.75,35.100002,984.75,96758
-130.650009,31.200001,984.75,96762
-126.75,31.200001,975,96766
-128.699997,31.200001,980.850037,96770
-128.699997,31.200001,978.900024,96774
-124.800003,33.150002,980.850037,96778
-126.75,35.100002,978.900024,96782
-124.800003,33.150002,984.75,96786
-126.75,37.049999,980.850037,96790
-124.800003,37.049999,980.850037,96794
-126.75,33.150002,978.900024,96798
-126.75,33.150002,984.75,96802
-95.550003,29.25,978.900024,96806
-122.850006,31.200001,978.900024,96810
-128.699997,31.200001,982.800049,96814
-128.699997,27.300001,980.850037,96818
-122.850006,33.150002,976.950012,96822
-126.75,33.150002,980.850037,96826
-122.850006,31.200001,980.850037,96830
-126.75,29.25,980.850037,96834
-128.699997,33.150002,982.800049,96838
-124.800003,42.900002,986.700012,96842
-126.75,37.049999,990.600037,96846
-126.75,31.200001,980.850037,96850
-122.850006,33.150002,982.800049,96854
-122.850006,33.150002,986.700012,96858
-124.800003,37.049999,984.75,96862
-126.75,35.100002,980.850037,96866
-120.900002,37.049999,982.800049,96870
-122.850006,37.049999,980.850037,96874
-130.650009,35.100002,982.800049,96878
-130.650009,29.25,978.900024,96882
-126.75,33.150002,988.650024,96886
-126.75,31.200001,992.550049,96890
-132.600006,29.25,976.950012,96894
-126.75,33.150002,975,96898
-126.75,29.25,978.900024,96902
-130.650009,27.300001,975,96906
-134.550003,33.150002,971.100037,96910
-130.650009,31.200001,978.900024,96914
-128.699997,31.200001,978.900024,96918
-128.699997,39,980.850037,96922
-122.850006,29.25,980.850037,96926
-120.900002,27.300001,982.800049,96930
-128.699997,27.300001,984.75,96934
-130.650009,31.200001,982.800049,96938
-128.699997,33.150002,986.700012,96942
-130.650009,31.200001,976.950012,96946
-128.699997,39,984.75,96950
-128.699997,25.35,984.75,96954
-126.75,31.200001,988.650024,96958
-115.050003,25.35,988.650024,96962
-117,33.150002,988.650024,96966
-122.850006,29.25,980.850037,96970
-130.650009,33.150002,980.850037,96974
-136.5,31.200001,986.700012,96978
-128.699997,33.150002,984.75,96982
-128.699997,37.049999,988.650024,96986
-128.699997,31.200001,984.75,96990
-124.800003,29.25,978.900024,96994
-120.900002,27.300001,980.850037,96998
-122.850006,29.25,980.850037,97002
-128.699997,35.100002,976.950012,97006
-128.699997,37.049999,976.950012,97010
-128.699997,44.850002,976.950012,97014
-124.800003,37.049999,976.950012,97018
-124.800003,35.100002,976.950012,97022
-126.75,35.100002,980.850037,97026
-124.800003,33.150002,978.900024,97030
-128.699997,33.150002,978.900024,97034
-124.800003,37.049999,984.75,97038
-120.900002,27.300001,976.950012,97042
-124.800003,29.25,984.75,97046
-130.650009,31.200001,984.75,97050
-126.75,31.200001,978.900024,97054
-130.650009,33.150002,978.900024,97058
-126.75,31.200001,982.800049,97062
-128.699997,35.100002,982.800049,97066
-128.699997,35.100002,988.650024,97070
-126.75,39,990.600037,97074
-126.75,39,982.800049,97078
-134.550003,29.25,984.75,97082
-132.600006,27.300001,990.600037,97086
-124.800003,29.25,982.800049,97090
-124.800003,31.200001,988.650024,97094
-126.75,35.100002,984.75,97098
-128.699997,31.200001,988.650024,97102
-128.699997,25.35,984.75,97106
-124.800003,31.200001,976.950012,97110
-122.850006,29.25,973.050049,97114
-124.800003,33.150002,980.850037,97118
-132.600006,33.150002,978.900024,97122
-130.650009,27.300001,980.850037,97126
-124.800003,35.100002,978.900024,97130
-130.650009,29.25,980.850037,97134
-130.650009,27.300001,975,97138
-130.650009,23.400002,973.050049,97142
-124.800003,33.150002,978.900024,97146
-124.800003,33.150002,980.850037,97150
-130.650009,31.200001,978.900024,97154
-132.600006,25.35,982.800049,97158
-132.600006,29.25,980.850037,97162
-128.699997,33.150002,982.800049,97166
-126.75,35.100002,980.850037,97170
-122.850006,31.200001,982.800049,97174
-120.900002,33.150002,976.950012,97178
-122.850006,25.35,982.800049,97182
-126.75,31.200001,980.850037,97186
-126.75,27.300001,984.75,97190
-126.75,33.150002,978.900024,97194
-124.800003,27.300001,980.850037,97198
-126.75,33.150002,982.800049,97202
-126.75,31.200001,982.800049,97206
-124.800003,25.35,978.900024,97210
-132.600006,29.25,980.850037,97214
-120.900002,33.150002,980.850037,97218
-120.900002,35.100002,986.700012,97222
-124.800003,33.150002,978.900024,97226
-124.800003,31.200001,980.850037,97230
-126.75,35.100002,984.75,97234
-126.75,29.25,980.850037,97238
-122.850006,60.450001,986.700012,97242
-126.75,23.400002,984.75,97246
-126.75,33.150002,978.900024,97250
-120.900002,33.150002,980.850037,97254
-124.800003,33.150002,982.800049,97258
-128.699997,35.100002,978.900024,97262
-134.550003,37.049999,976.950012,97266
-130.650009,35.100002,980.850037,97270
-128.699997,31.200001,988.650024,97274
-126.75,33.150002,982.800049,97278
-124.800003,29.25,978.900024,97282
-122.850006,29.25,982.800049,97286
-124.800003,31.200001,988.650024,97290
-126.75,33.150002,986.700012,97294
-126.75,29.25,980.850037,97298
-118.950005,31.200001,978.900024,97302
-124.800003,35.100002,973.050049,97306
-126.75,29.25,975,97310
-130.650009,33.150002,975,97314
-124.800003,31.200001,982.800049,97318
-122.850006,35.100002,978.900024,97322
-122.850006,33.150002,980.850037,97326
-126.75,31.200001,978.900024,97330
-122.850006,27.300001,978.900024,97334
-124.800003,31.200001,980.850037,97338
-126.75,29.25,980.850037,97342
-124.800003,29.25,984.75,97346
-128.699997,27.300001,984.75,97350
-124.800003,27.300001,984.75,97354
-124.800003,27.300001,986.700012,97358
-126.75,31.200001,978.900024,97362
-126.75,31.200001,980.850037,97366
-132.600006,33.150002,982.800049,97370
-130.650009,33.150002,980.850037,97374
-126.75,27.300001,980.850037,97378
-122.850006,29.25,982.800049,97382
-128.699997,31.200001,984.75,97386
-126.75,35.100002,980.850037,97390
-124.800003,29.25,982.800049,97394
-126.75,31.200001,984.75,97398
-124.800003,29.25,978.900024,97402
-126.75,29.25,986.700012,97406
-126.75,33.150002,984.75,97410
-130.650009,37.049999,982.800049,97414
-128.699997,35.100002,980.850037,97418
-124.800003,35.100002,978.900024,97422
-124.800003,31.200001,978.900024,97426
-128.699997,35.100002,978.900024,97430
-124.800003,31.200001,975,97434
-122.850006,33.150002,980.850037,97438
-122.850006,33.150002,976.950012,97442
-126.75,35.100002,988.650024,97446
-124.800003,31.200001,982.800049,97450
-128.699997,35.100002,976.950012,97454
-128.699997,33.150002,980.850037,97458
-134.550003,25.35,980.850037,97462
-132.600006,31.200001,982.800049,97466
-128.699997,31.200001,986.700012,97470
-130.650009,31.200001,986.700012,97474
-130.650009,35.100002,975,97478
-126.75,31.200001,982.800049,97482
-126.75,27.300001,980.850037,97486
-128.699997,37.049999,980.850037,97490
-124.800003,35.100002,980.850037,97494
-122.850006,37.049999,984.75,97498
-126.75,27.300001,986.700012,97502
-128.699997,27.300001,978.900024,97506
-128.699997,33.150002,975,97510
-130.650009,29.25,982.800049,97514
-128.699997,23.400002,986.700012,97518
-126.75,29.25,976.950012,97522
-126.75,33.150002,980.850037,97526
-126.75,33.150002,978.900024,97530
-130.650009,29.25,982.800049,97534
-122.850006,31.200001,984.75,97538
-117,27.300001,982.800049,97542
-128.699997,35.100002,976.950012,97546
-130.650009,37.049999,980.850037,97550
-118.950005,33.150002,984.75,97554
-117,27.300001,980.850037,97558
-124.800003,35.100002,980.850037,97562
-124.800003,35.100002,980.850037,97566
-128.699997,37.049999,982.800049,97570
-126.75,39,980.850037,97574
-122.850006,35.100002,975,97578
-124.800003,35.100002,980.850037,97582
-128.699997,33.150002,978.900024,97586
-130.650009,33.150002,982.800049,97590
-126.75,35.100002,986.700012,97594
-118.950005,35.100002,984.75,97598
-132.600006,39,975,97602
-128.699997,35.100002,973.050049,97606
-126.75,27.300001,978.900024,97610
-122.850006,31.200001,978.900024,97614
-126.75,29.25,976.950012,97618
-124.800003,40.950001,984.75,97622
-124.800003,40.950001,982.800049,97626
-126.75,37.049999,976.950012,97630
-128.699997,40.950001,976.950012,97634
-130.650009,40.950001,980.850037,97638
-130.650009,35.100002,982.800049,97642
-126.75,35.100002,990.600037,97646
-126.75,27.300001,984.75,97650
-130.650009,33.150002,988.650024,97654
-126.75,25.35,982.800049,97658
-122.850006,31.200001,978.900024,97662
-120.900002,25.35,978.900024,97666
-122.850006,27.300001,973.050049,97670
-124.800003,23.400002,980.850037,97674
-128.699997,29.25,986.700012,97678
-132.600006,35.100002,982.800049,97682
-138.449997,33.150002,984.75,97686
-132.600006,37.049999,982.800049,97690
-130.650009,31.200001,980.850037,97694
-126.75,29.25,980.850037,97698
-126.75,27.300001,982.800049,97702
-122.850006,31.200001,982.800049,97706
-122.850006,29.25,988.650024,97710
-126.75,35.100002,984.75,97714
-122.850006,31.200001,984.75,97718
-126.75,35.100002,986.700012,97722
-126.75,27.300001,978.900024,97726
-120.900002,27.300001,978.900024,97730
-122.850006,33.150002,980.850037,97734
-126.75,27.300001,978.900024,97738
-132.600006,27.300001,980.850037,97742
-130.650009,31.200001,978.900024,97746
-130.650009,31.200001,982.800049,97750
-128.699997,31.200001,986.700012,97754
-126.75,31.200001,978.900024,97758
-124.800003,31.200001,976.950012,97762
-128.699997,31.200001,975,97766
-130.650009,37.049999,978.900024,97770
-132.600006,33.150002,982.800049,97774
-126.75,29.25,984.75,97778
-124.800003,27.300001,986.700012,97782
-128.699997,33.150002,984.75,97786
-128.699997,40.950001,980.850037,97790
-132.600006,33.150002,982.800049,97794
-132.600006,31.200001,990.600037,97798
-130.650009,31.200001,984.75,97802
-132.600006,25.35,980.850037,97806
-132.600006,25.35,973.050049,97810
-126.75,25.35,978.900024,97814
-126.75,31.200001,973.050049,97818
-128.699997,29.25,978.900024,97822
-130.650009,23.400002,982.800049,97826
-128.699997,31.200001,978.900024,97830
-124.800003,29.25,978.900024,97834
-132.600006,31.200001,978.900024,97838
-128.699997,31.200001,982.800049,97842
-132.600006,31.200001,982.800049,97846
-126.75,31.200001,982.800049,97850
-122.850006,27.300001,978.900024,97854
-130.650009,33.150002,978.900024,97858
-128.699997,29.25,975,97862
-132.600006,37.049999,982.800049,97866
-122.850006,29.25,980.850037,97870
-122.850006,31.200001,986.700012,97874
-122.850006,33.150002,988.650024,97878
-124.800003,35.100002,980.850037,97882
-130.650009,33.150002,978.900024,97886
-132.600006,27.300001,978.900024,97890
-124.800003,33.150002,982.800049,97894
-128.699997,35.100002,978.900024,97898
-132.600006,37.049999,976.950012,97902
-120.900002,33.150002,969.150024,97906
-128.699997,35.100002,976.950012,97910
-132.600006,33.150002,984.75,97914
-124.800003,27.300001,978.900024,97918
-126.75,29.25,976.950012,97922
-128.699997,31.200001,982.800049,97926
-128.699997,33.150002,984.75,97930
-122.850006,33.150002,986.700012,97934
-118.950005,60.450001,988.650024,97938
-124.800003,33.150002,980.850037,97942
-128.699997,33.150002,976.950012,97946
-132.600006,35.100002,980.850037,97950
-128.699997,42.900002,984.75,97954
-128.699997,39,982.800049,97958
-130.650009,35.100002,978.900024,97962
-126.75,39,975,97966
-128.699997,44.850002,980.850037,97970
-124.800003,31.200001,984.75,97974
-130.650009,33.150002,984.75,97978
-130.650009,31.200001,978.900024,97982
-126.75,31.200001,976.950012,97986
-126.75,27.300001,978.900024,97990
-128.699997,33.150002,978.900024,97994
-128.699997,29.25,982.800049,97998
-120.900002,31.200001,976.950012,98002
-126.75,35.100002,978.900024,98006
-124.800003,31.200001,973.050049,98010
-126.75,31.200001,980.850037,98014
-126.75,29.25,982.800049,98018
-124.800003,29.25,984.75,98022
-126.75,35.100002,984.75,98026
-126.75,37.049999,980.850037,98030
-124.800003,31.200001,976.950012,98034
-126.75,29.25,973.050049,98038
-130.650009,33.150002,975,98042
-134.550003,33.150002,978.900024,98046
-130.650009,33.150002,978.900024,98050
-130.650009,33.150002,978.900024,98054
-124.800003,23.400002,976.950012,98058
-126.75,23.400002,975,98062
-124.800003,31.200001,984.75,98066
-122.850006,27.300001,984.75,98070
-122.850006,29.25,980.850037,98074
-126.75,35.100002,980.850037,98078
-126.75,40.950001,975,98082
-124.800003,35.100002,978.900024,98086
-130.650009,25.35,976.950012,98090
-120.900002,29.25,978.900024,98094
-122.850006,25.35,978.900024,98098
-132.600006,29.25,978.900024,98102
-126.75,25.35,978.900024,98106
-128.699997,25.35,978.900024,98110
-132.600006,33.150002,986.700012,98114
-130.650009,31.200001,984.75,98118
-126.75,31.200001,982.800049,98122
-128.699997,31.200001,982.800049,98126
-130.650009,31.200001,992.550049,98130
-126.75,31.200001,982.800049,98134
-124.800003,27.300001,984.75,98138
-132.600006,29.25,986.700012,98142
-136.5,29.25,984.75,98146
-126.75,35.100002,976.950012,98150
-124.800003,35.100002,982.800049,98154
-120.900002,29.25,976.950012,98158
-128.699997,27.300001,978.900024,98162
-126.75,35.100002,976.950012,98166
-128.699997,29.25,984.75,98170
-128.699997,33.150002,980.850037,98174
-130.650009,27.300001,982.800049,98178
-124.800003,31.200001,984.75,98182
-124.800003,37.049999,988.650024,98186
-122.850006,39,986.700012,98190
-126.75,33.150002,978.900024,98194
-124.800003,40.950001,980.850037,98198
-126.75,35.100002,973.050049,98202
-130.650009,33.150002,984.75,98206
-128.699997,39,984.75,98210
-126.75,35.100002,986.700012,98214
-124.800003,35.100002,980.850037,98218
-132.600006,31.200001,980.850037,98222
-128.699997,25.35,980.850037,98226
-126.75,25.35,971.100037,98230
-122.850006,31.200001,975,98234
-126.75,35.100002,982.800049,98238
-126.75,31.200001,988.650024,98242
-124.800003,33.150002,982.800049,98246
-120.900002,33.150002,984.75,98250
-122.850006,31.200001,980.850037,98254
-124.800003,35.100002,978.900024,98258
-124.800003,31.200001,976.950012,98262
-126.75,31.200001,978.900024,98266
-124.800003,33.150002,980.850037,98270
-120.900002,29.25,986.700012,98274
-130.650009,33.150002,982.800049,98278
-130.650009,27.300001,982.800049,98282
-128.699997,31.200001,986.700012,98286
-124.800003,29.25,978.900024,98290
-126.75,33.150002,980.850037,98294
-124.800003,33.150002,982.800049,98298
-124.800003,33.150002,982.800049,98302
-126.75,35.100002,990.600037,98306
-122.850006,27.300001,980.850037,98310
-122.850006,33.150002,988.650024,98314
-120.900002,29.25,984.75,98318
-118.950005,29.25,984.75,98322
-126.75,27.300001,984.75,98326
-128.699997,29.25,984.75,98330
-130.650009,31.200001,984.75,98334
-124.800003,33.150002,980.850037,98338
-124.800003,29.25,980.850037,98342
-126.75,33.150002,982.800049,98346
-128.699997,31.200001,980.850037,98350
-126.75,33.150002,980.850037,98354
-126.75,31.200001,980.850037,98358
-124.800003,25.35,984.75,98362
-126.75,29.25,982.800049,98366
-124.800003,33.150002,984.75,98370
-134.550003,37.049999,984.75,98374
-128.699997,37.049999,982.800049,98378
-124.800003,35.100002,978.900024,98382
-128.699997,37.049999,982.800049,98386
-126.75,33.150002,986.700012,98390
-128.699997,35.100002,988.650024,98394
-130.650009,29.25,984.75,98398
-128.699997,33.150002,976.950012,98402
-124.800003,27.300001,980.850037,98406
-126.75,29.25,980.850037,98410
-134.550003,29.25,982.800049,98414
-124.800003,27.300001,980.850037,98418
-124.800003,27.300001,982.800049,98422
-128.699997,33.150002,978.900024,98426
-156,0,982.800049,98430
-126.75,33.150002,980.850037,98434
-128.699997,33.150002,978.900024,98438
-126.75,31.200001,976.950012,98442
-126.75,33.150002,975,98446
-124.800003,33.150002,978.900024,98450
-124.800003,29.25,984.75,98454
-124.800003,33.150002,984.75,98458
-124.800003,21.450001,986.700012,98462
-126.75,21.450001,980.850037,98466
-126.75,21.450001,982.800049,98470
-130.650009,25.35,986.700012,98474
-126.75,29.25,975,98478
-122.850006,31.200001,971.100037,98482
-124.800003,31.200001,976.950012,98486
-122.850006,27.300001,984.75,98490
-124.800003,23.400002,982.800049,98494
-128.699997,25.35,980.850037,98498
-122.850006,29.25,984.75,98502
-120.900002,27.300001,984.75,98506
-126.75,33.150002,980.850037,98510
-132.600006,39,980.850037,98514
-138.449997,27.300001,975,98518
-132.600006,27.300001,978.900024,98522
-126.75,19.5,978.900024,98526
-126.75,27.300001,980.850037,98530
-124.800003,31.200001,980.850037,98534
-134.550003,33.150002,978.900024,98538
-124.800003,33.150002,986.700012,98542
-126.75,33.150002,982.800049,98546
-130.650009,29.25,978.900024,98550
-134.550003,33.150002,980.850037,98554
-124.800003,33.150002,978.900024,98558
-126.75,33.150002,980.850037,98562
-122.850006,27.300001,976.950012,98566
-122.850006,35.100002,980.850037,98570
-124.800003,35.100002,980.850037,98574
-126.75,33.150002,982.800049,98578
-126.75,33.150002,978.900024,98582
-124.800003,33.150002,975,98586
-122.850006,29.25,971.100037,98590
-115.050003,31.200001,976.950012,98594
-115.050003,29.25,982.800049,98598
-120.900002,33.150002,982.800049,98602
-128.699997,37.049999,982.800049,98606
-124.800003,42.900002,986.700012,98610
-132.600006,33.150002,986.700012,98614
-130.650009,33.150002,984.75,98618
-132.600006,33.150002,984.75,98622
-134.550003,29.25,978.900024,98626
-138.449997,31.200001,980.850037,98630
-126.75,31.200001,984.75,98634
-124.800003,31.200001,982.800049,98638
-126.75,29.25,984.75,98642
-126.75,31.200001,978.900024,98646
-124.800003,35.100002,990.600037,98650
-124.800003,39,984.75,98654
-122.850006,29.25,982.800049,98658
-97.5,29.25,976.950012,98662
-134.550003,33.150002,978.900024,98666
-130.650009,39,984.75,98670
-124.800003,33.150002,984.75,98674
-124.800003,31.200001,982.800049,98678
-128.699997,35.100002,980.850037,98682
-128.699997,39,973.050049,98686
-132.600006,33.150002,978.900024,98690
-126.75,33.150002,982.800049,98694
-132.600006,35.100002,980.850037,98698
-130.650009,31.200001,978.900024,98702
-126.75,35.100002,984.75,98706
-126.75,35.100002,982.800049,98710
-122.850006,31.200001,982.800049,98714
-126.75,31.200001,978.900024,98718
-128.699997,37.049999,980.850037,98722
-132.600006,39,988.650024,98726
-128.699997,29.25,986.700012,98730
-124.800003,37.049999,976.950012,98734
-122.850006,40.950001,973.050049,98738
-124.800003,35.100002,976.950012,98742
-126.75,37.049999,976.950012,98746
-126.75,35.100002,973.050049,98750
-132.600006,29.25,978.900024,98754
-132.600006,31.200001,976.950012,98758
-132.600006,29.25,990.600037,98762
-126.75,31.200001,978.900024,98766
-126.75,35.100002,984.75,98770
-128.699997,33.150002,980.850037,98774
-130.650009,29.25,975,98778
-132.600006,29.25,976.950012,98782
-132.600006,29.25,976.950012,98786
-130.650009,39,973.050049,98790
-126.75,37.049999,975,98794
-122.850006,33.150002,980.850037,98798
-120.900002,29.25,982.800049,98802
-126.75,29.25,976.950012,98806
-126.75,39,978.900024,98810
-122.850006,29.25,978.900024,98814
-120.900002,31.200001,980.850037,98818
-126.75,27.300001,980.850037,98822
-126.75,21.450001,978.900024,98826
-124.800003,25.35,971.100037,98830
-120.900002,31.200001,978.900024,98834
-122.850006,31.200001,976.950012,98838
-128.699997,29.25,982.800049,98842
-126.75,31.200001,980.850037,98846
-124.800003,35.100002,980.850037,98850
-126.75,33.150002,982.800049,98854
-120.900002,37.049999,980.850037,98858
-128.699997,37.049999,986.700012,98862
-134.550003,35.100002,984.75,98866
-132.600006,29.25,980.850037,98870
-126.75,29.25,980.850037,98874
-120.900002,35.100002,984.75,98878
-120.900002,37.049999,986.700012,98882
-120.900002,35.100002,982.800049,98886
-124.800003,31.200001,978.900024,98890
-132.600006,33.150002,980.850037,98894
-126.75,37.049999,978.900024,98898
-126.75,39,973.050049,98902
-124.800003,39,975,98906
-124.800003,33.150002,980.850037,98910
-124.800003,29.25,986.700012,98914
-120.900002,29.25,980.850037,98918
-130.650009,31.200001,982.800049,98922
-130.650009,25.35,978.900024,98926
-128.699997,40.950001,980.850037,98930
-124.800003,39,984.75,98934
-126.75,29.25,982.800049,98938
-122.850006,27.300001,982.800049,98942
-124.800003,33.150002,984.75,98946
-126.75,27.300001,980.850037,98950
-130.650009,35.100002,978.900024,98954
-124.800003,33.150002,975,98958
-126.75,33.150002,976.950012,98962
-124.800003,35.100002,973.050049,98966
-124.800003,27.300001,976.950012,98970
-120.900002,35.100002,976.950012,98974
-124.800003,35.100002,980.850037,98978
-126.75,37.049999,984.75,98982
-122.850006,37.049999,976.950012,98986
-124.800003,35.100002,976.950012,98990
-126.75,39,980.850037,98994
-128.699997,35.100002,984.75,98998
-130.650009,37.049999,982.800049,99002
-128.699997,33.150002,982.800049,99006
-124.800003,33.150002,992.550049,99010
-120.900002,31.200001,986.700012,99014
-118.950005,27.300001,982.800049,99018
-120.900002,29.25,973.050049,99022
-124.800003,35.100002,976.950012,99026
-126.75,35.100002,978.900024,99030
-128.699997,33.150002,978.900024,99034
-134.550003,31.200001,982.800049,99038
-130.650009,33.150002,976.950012,99042
-130.650009,29.25,978.900024,99046
-128.699997,23.400002,976.950012,99050
-126.75,27.300001,982.800049,99054
-120.900002,25.35,982.800049,99058
-124.800003,27.300001,978.900024,99062
-132.600006,27.300001,982.800049,99066
-128.699997,27.300001,984.75,99070
-126.75,31.200001,988.650024,99074
-128.699997,35.100002,988.650024,99078
-128.699997,33.150002,988.650024,99082
-126.75,35.100002,980.850037,99086
-126.75,31.200001,980.850037,99090
-126.75,29.25,982.800049,99094
-126.75,31.200001,982.800049,99098
-124.800003,25.35,980.850037,99102
-118.950005,31.200001,982.800049,99106
-122.850006,29.25,976.950012,99110
-130.650009,29.25,982.800049,99114
-124.800003,31.200001,980.850037,99118
-126.75,31.200001,986.700012,99122
-126.75,25.35,982.800049,99126
-126.75,23.400002,984.75,99130
-120.900002,25.35,978.900024,99134
-122.850006,21.450001,984.75,99138
-126.75,27.300001,982.800049,99142
-124.800003,23.400002,978.900024,99146
-130.650009,23.400002,975,99150
-128.699997,25.35,976.950012,99154
-132.600006,31.200001,976.950012,99158
-128.699997,35.100002,975,99162
-128.699997,35.100002,978.900024,99166
-130.650009,35.100002,982.800049,99170
-130.650009,33.150002,980.850037,99174
-124.800003,35.100002,982.800049,99178
-128.699997,35.100002,978.900024,99182
-132.600006,33.150002,975,99186
-130.650009,33.150002,982.800049,99190
-124.800003,31.200001,980.850037,99194
-130.650009,31.200001,978.900024,99198
-126.75,33.150002,978.900024,99202
-130.650009,35.100002,973.050049,99206
-132.600006,39,976.950012,99210
-136.5,37.049999,980.850037,99214
-130.650009,31.200001,986.700012,99218
-134.550003,35.100002,980.850037,99222
-136.5,33.150002,982.800049,99226
-130.650009,31.200001,978.900024,99230
-126.75,35.100002,980.850037,99234
-126.75,33.150002,982.800049,99238
-134.550003,27.300001,980.850037,99242
-128.699997,31.200001,984.75,99246
-130.650009,29.25,982.800049,99250
-124.800003,35.100002,982.800049,99254
-122.850006,33.150002,978.900024,99258
-128.699997,33.150002,976.950012,99262
-130.650009,33.150002,980.850037,99266
-130.650009,35.100002,978.900024,99270
-128.699997,31.200001,980.850037,99274
-128.699997,31.200001,976.950012,99278
-122.850006,25.35,988.650024,99282
-128.699997,29.25,984.75,99286
-122.850006,39,976.950012,99290
-124.800003,35.100002,984.75,99294
-126.75,31.200001,988.650024,99298
-126.75,37.049999,988.650024,99302
-124.800003,39,986.700012,99306
-126.75,31.200001,988.650024,99310
-122.850006,29.25,982.800049,99314
-120.900002,27.300001,980.850037,99318
-124.800003,29.25,982.800049,99322
-126.75,40.950001,980.850037,99326
-132.600006,37.049999,988.650024,99330
-122.850006,37.049999,982.800049,99334
-124.800003,33.150002,980.850037,99338
-124.800003,35.100002,984.75,99342
-136.5,31.200001,982.800049,99346
-130.650009,27.300001,984.75,99350
-130.650009,29.25,976.950012,99354
-124.800003,31.200001,978.900024,99358
-128.699997,25.35,980.850037,99362
-132.600006,29.25,976.950012,99366
-132.600006,23.400002,976.950012,99370
-130.650009,31.200001,980.850037,99374
-130.650009,33.150002,984.75,99378
-124.800003,31.200001,986.700012,99382
-124.800003,39,984.75,99386
-130.650009,31.200001,982.800049,99390
-126.75,29.25,978.900024,99394
-118.950005,31.200001,980.850037,99398
-124.800003,33.150002,980.850037,99402
-132.600006,37.049999,975,99406
-124.800003,37.049999,980.850037,99410
-126.75,37.049999,976.950012,99414
-128.699997,40.950001,976.950012,99418
-130.650009,33.150002,982.800049,99422
-128.699997,37.049999,980.850037,99426
-130.650009,37.049999,980.850037,99430
-132.600006,31.200001,984.75,99434
-122.850006,31.200001,984.75,99438
-122.850006,33.150002,984.75,99442
-124.800003,33.150002,980.850037,99446
-134.550003,35.100002,976.950012,99450
-130.650009,31.200001,978.900024,99454
-126.75,39,980.850037,99458
-124.800003,33.150002,980.850037,99462
-122.850006,29.25,980.850037,99466
-122.850006,35.100002,982.800049,99470
-124.800003,29.25,984.75,99474
-128.699997,31.200001,978.900024,99478
-130.650009,31.200001,980.850037,99482
-128.699997,31.200001,978.900024,99486
-128.699997,33.150002,976.950012,99490
-128.699997,31.200001,986.700012,99494
-130.650009,33.150002,978.900024,99498
-124.800003,33.150002,978.900024,99502
-130.650009,39,982.800049,99506
-128.699997,37.049999,982.800049,99510
-126.75,33.150002,984.75,99514
-128.699997,33.150002,984.75,99518
-122.850006,27.300001,988.650024,99522
-126.75,33.150002,992.550049,99526
-124.800003,33.150002,984.75,99530
-124.800003,35.100002,988.650024,99534
-126.75,31.200001,984.75,99538
-132.600006,31.200001,982.800049,99542
-132.600006,33.150002,982.800049,99546
-124.800003,37.049999,980.850037,99550
-128.699997,29.25,982.800049,99554
-130.650009,35.100002,980.850037,99558
-130.650009,33.150002,980.850037,99562
-128.699997,33.150002,988.650024,99566
-124.800003,39,976.950012,99570
-128.699997,37.049999,978.900024,99574
-124.800003,29.25,976.950012,99578
-128.699997,27.300001,976.950012,99582
-128.699997,27.300001,975,99586
-124.800003,31.200001,976.950012,99590
-132.600006,33.150002,978.900024,99594
-126.75,27.300001,982.800049,99598
-122.850006,27.300001,976.950012,99602
-124.800003,33.150002,984.75,99606
-122.850006,35.100002,976.950012,99610
-120.900002,35.100002,980.850037,99614
-128.699997,33.150002,982.800049,99618
-124.800003,31.200001,975,99622
-124.800003,33.150002,978.900024,99626
-126.75,31.200001,978.900024,99630
-120.900002,31.200001,980.850037,99634
-128.699997,27.300001,982.800049,99638
-124.800003,29.25,982.800049,99642
-128.699997,39,976.950012,99646
-132.600006,35.100002,980.850037,99650
-128.699997,31.200001,982.800049,99654
-130.650009,33.150002,984.75,99658
-130.650009,37.049999,986.700012,99662
-132.600006,35.100002,978.900024,99666
-128.699997,27.300001,984.75,99670
-124.800003,29.25,988.650024,99674
-124.800003,33.150002,984.75,99678
-122.850006,31.200001,980.850037,99682
-118.950005,33.150002,984.75,99686
-122.850006,33.150002,986.700012,99690
-126.75,29.25,980.850037,99694
-130.650009,37.049999,984.75,99698
-130.650009,37.049999,986.700012,99702
-134.550003,33.150002,982.800049,99706
-136.5,35.100002,982.800049,99710
-130.650009,37.049999,978.900024,99714
-128.699997,40.950001,978.900024,99718
-128.699997,35.100002,982.800049,99722
-130.650009,33.150002,978.900024,99726
-126.75,29.25,982.800049,99730
-122.850006,25.35,980.850037,99734
-126.75,37.049999,976.950012,99738
-128.699997,40.950001,978.900024,99742
-124.800003,39,976.950012,99746
-130.650009,35.100002,980.850037,99750
-128.699997,35.100002,973.050049,99754
-124.800003,33.150002,980.850037,99758
-124.800003,35.100002,986.700012,99762
-130.650009,35.100002,978.900024,99766
-128.699997,29.25,978.900024,99770
-126.75,33.150002,978.900024,99774
-126.75,37.049999,982.800049,99778
-128.699997,35.100002,986.700012,99782
-122.850006,23.400002,984.75,99786
-122.850006,19.5,988.650024,99790
-122.850006,25.35,988.650024,99794
-124.800003,29.25,990.600037,99798
-134.550003,29.25,980.850037,99802
-132.600006,29.25,982.800049,99806
-130.650009,29.25,986.700012,99810
-128.699997,35.100002,978.900024,99814
-124.800003,31.200001,980.850037,99818
-128.699997,29.25,982.800049,99822
-128.699997,33.150002,982.800049,99826
-120.900002,33.150002,978.900024,99830
-126.75,31.200001,976.950012,99834
-126.75,27.300001,976.950012,99838
-126.75,27.300001,971.100037,99842
-124.800003,27.300001,976.950012,99846
-126.75,33.150002,978.900024,99850
-126.75,25.35,992.550049,99854
-126.75,31.200001,982.800049,99858
-124.800003,37.049999,980.850037,99862
-124.800003,35.100002,982.800049,99866
-128.699997,31.200001,978.900024,99870
-120.900002,29.25,988.650024,99874
-128.699997,33.150002,986.700012,99878
-124.800003,33.150002,988.650024,99882
-126.75,37.049999,973.050049,99886
-126.75,33.150002,978.900024,99890
-132.600006,33.150002,980.850037,99894
-134.550003,33.150002,980.850037,99898
-132.600006,27.300001,976.950012,99902
-130.650009,29.25,982.800049,99906
-126.75,29.25,975,99910
-120.900002,35.100002,982.800049,99914
-130.650009,35.100002,980.850037,99918
-134.550003,31.200001,978.900024,99922
-132.600006,35.100002,975,99926
-128.699997,29.25,976.950012,99930
-130.650009,29.25,976.950012,99934
-122.850006,27.300001,975,99938
-128.699997,33.150002,976.950012,99942
-132.600006,31.200001,976.950012,99946
-126.75,27.300001,978.900024,99950
-128.699997,29.25,978.900024,99954
-126.75,31.200001,986.700012,99958
-128.699997,31.200001,982.800049,99962
-128.699997,25.35,975,99966
-128.699997,31.200001,984.75,99970
-126.75,25.35,980.850037,99974
-124.800003,33.150002,984.75,99978
-122.850006,37.049999,990.600037,99982
-124.800003,29.25,980.850037,99986
-122.850006,31.200001,982.800049,99990
-126.75,25.35,976.950012,99994
-128.699997,31.200001,980.850037,99998
-124.800003,35.100002,986.700012,100002
-126.75,31.200001,982.800049,100006
-130.650009,29.25,984.75,100010
-128.699997,29.25,982.800049,100014
-128.699997,31.200001,976.950012,100018
-130.650009,27.300001,984.75,100022
-130.650009,25.35,978.900024,100026
-124.800003,29.25,980.850037,100030
-128.699997,39,978.900024,100034
-126.75,35.100002,984.75,100038
-130.650009,33.150002,984.75,100042
-130.650009,29.25,986.700012,100046
-126.75,33.150002,976.950012,100050
-124.800003,29.25,978.900024,100054
-138.449997,31.200001,980.850037,100058
-132.600006,29.25,986.700012,100062
-132.600006,37.049999,984.75,100066
-128.699997,33.150002,984.75,100070
-126.75,33.150002,980.850037,100074
-128.699997,33.150002,982.800049,100078
-130.650009,35.100002,976.950012,100082
-126.75,31.200001,988.650024,100086
-122.850006,25.35,976.950012,100090
-124.800003,31.200001,982.800049,100094
-126.75,29.25,982.800049,100098
-126.75,31.200001,978.900024,100102
-122.850006,37.049999,986.700012,100106
-124.800003,35.100002,980.850037,100110
-126.75,31.200001,982.800049,100114
-130.650009,39,975,100118
-130.650009,37.049999,980.850037,100122
-124.800003,29.25,980.850037,100126
-120.900002,35.100002,982.800049,100130
-124.800003,31.200001,984.75,100134
-126.75,27.300001,984.75,100138
-128.699997,27.300001,978.900024,100142
-126.75,27.300001,980.850037,100146
-128.699997,31.200001,976.950012,100150
-128.699997,31.200001,982.800049,100154
-128.699997,33.150002,982.800049,100158
-124.800003,33.150002,980.850037,100162
-134.550003,27.300001,980.850037,100166
-136.5,29.25,976.950012,100170
-130.650009,33.150002,982.800049,100174
-132.600006,35.100002,976.950012,100178
-132.600006,33.150002,980.850037,100182
-132.600006,31.200001,980.850037,100186
-132.600006,21.450001,984.75,100190
-132.600006,29.25,976.950012,100194
-124.800003,33.150002,978.900024,100198
-128.699997,31.200001,978.900024,100202
-126.75,33.150002,980.850037,100206
-126.75,37.049999,982.800049,100210
-128.699997,33.150002,975,100214
-130.650009,37.049999,980.850037,100218
-124.800003,31.200001,978.900024,100222
-124.800003,33.150002,978.900024,100226
-95.550003,39,982.800049,100230
-120.900002,39,975,100234
-126.75,39,984.75,100238
-130.650009,35.100002,982.800049,100242
-132.600006,29.25,982.800049,100246
-132.600006,27.300001,978.900024,100250
-130.650009,33.150002,982.800049,100254
-132.600006,37.049999,978.900024,100258
-128.699997,35.100002,978.900024,100262
-130.650009,31.200001,982.800049,100266
-124.800003,37.049999,984.75,100270
-128.699997,31.200001,984.75,100274
-128.699997,35.100002,984.75,100278
-128.699997,21.450001,988.650024,100282
-128.699997,19.5,982.800049,100286
-122.850006,29.25,984.75,100290
-126.75,33.150002,982.800049,100294
-126.75,31.200001,982.800049,100298
-122.850006,35.100002,978.900024,100302
-117,27.300001,978.900024,100306
-126.75,33.150002,988.650024,100310
-126.75,29.25,986.700012,100314
-130.650009,31.200001,980.850037,100318
-132.600006,33.150002,978.900024,100322
-126.75,35.100002,978.900024,100326
-126.75,35.100002,978.900024,100330
-124.800003,33.150002,980.850037,100334
-124.800003,29.25,984.75,100338
-124.800003,35.100002,986.700012,100342
-134.550003,33.150002,984.75,100346
-130.650009,31.200001,978.900024,100350
-128.699997,31.200001,982.800049,100354
-130.650009,31.200001,976.950012,100358
-126.75,35.100002,982.800049,100362
-132.600006,29.25,982.800049,100366
-130.650009,37.049999,980.850037,100370
-124.800003,35.100002,984.75,100374
-130.650009,27.300001,984.75,100378
-130.650009,31.200001,980.850037,100382
-130.650009,33.150002,976.950012,100386
-130.650009,35.100002,976.950012,100390
-132.600006,31.200001,975,100394
-130.650009,33.150002,978.900024,100398
-126.75,37.049999,976.950012,100402
-128.699997,31.200001,980.850037,100406
-126.75,35.100002,978.900024,100410
-128.699997,25.35,978.900024,100414
-130.650009,29.25,982.800049,100418
-130.650009,33.150002,982.800049,100422
-134.550003,35.100002,984.75,100426
-132.600006,29.25,976.950012,100430
-132.600006,33.150002,980.850037,100434
-128.699997,39,978.900024,100438
-124.800003,35.100002,975,100442
-126.75,37.049999,976.950012,100446
-130.650009,35.100002,984.75,100450
-128.699997,35.100002,986.700012,100454
-130.650009,37.049999,982.800049,100458
-124.800003,40.950001,986.700012,100462
-124.800003,39,986.700012,100466
-126.75,33.150002,982.800049,100470
-132.600006,27.300001,986.700012,100474
-128.699997,39,980.850037,100478
-130.650009,37.049999,976.950012,100482
-128.699997,33.150002,984.75,100486
-126.75,33.150002,982.800049,100490
-132.600006,33.150002,982.800049,100494
-132.600006,29.25,982.800049,100498
-130.650009,35.100002,984.75,100502
-128.699997,31.200001,980.850037,100506
-128.699997,31.200001,980.850037,100510
-134.550003,33.150002,975,100514
-128.699997,29.25,978.900024,100518
-128.699997,25.35,982.800049,100522
-126.75,33.150002,978.900024,100526
-128.699997,31.200001,978.900024,100530
-128.699997,37.049999,976.950012,100534
-128.699997,37.049999,980.850037,100538
-124.800003,33.150002,984.75,100542
-132.600006,33.150002,984.75,100546
-130.650009,29.25,980.850037,100550
-124.800003,23.400002,978.900024,100554
-124.800003,29.25,984.75,100558
-134.550003,37.049999,978.900024,100562
-128.699997,33.150002,978.900024,100566
-132.600006,35.100002,982.800049,100570
-126.75,37.049999,982.800049,100574
-124.800003,33.150002,980.850037,100578
-122.850006,37.049999,980.850037,100582
-118.950005,37.049999,982.800049,100586
-128.699997,40.950001,982.800049,100590
-124.800003,35.100002,976.950012,100594
-126.75,37.049999,982.800049,100598
-124.800003,33.150002,986.700012,100602
-124.800003,42.900002,982.800049,100606
-132.600006,31.200001,980.850037,100610
-132.600006,33.150002,982.800049,100614
-126.75,35.100002,978.900024,100618
-122.850006,37.049999,971.100037,100622
-122.850006,31.200001,986.700012,100626
-124.800003,35.100002,976.950012,100630
-126.75,35.100002,978.900024,100634
-130.650009,33.150002,973.050049,100638
-130.650009,37.049999,978.900024,100642
-126.75,35.100002,976.950012,100646
-124.800003,37.049999,975,100650
-124.800003,35.100002,986.700012,100654
-130.650009,35.100002,982.800049,100658
-126.75,31.200001,976.950012,100662
-122.850006,33.150002,984.75,100666
-126.75,35.100002,984.75,100670
-124.800003,33.150002,975,100674
-122.850006,31.200001,978.900024,100678
-126.75,29.25,976.950012,100682
-128.699997,27.300001,982.800049,100686
-124.800003,27.300001,982.800049,100690
-124.800003,25.35,978.900024,100694
-126.75,35.100002,980.850037,100698
-124.800003,35.100002,978.900024,100702
-124.800003,35.100002,980.850037,100706
-122.850006,29.25,988.650024,100710
-126.75,29.25,988.650024,100714
-118.950005,39,978.900024,100718
-128.699997,33.150002,975,100722
-124.800003,35.100002,980.850037,100726
-128.699997,29.25,980.850037,100730
-124.800003,31.200001,984.75,100734
-122.850006,31.200001,984.75,100738
-124.800003,31.200001,988.650024,100742
-124.800003,35.100002,978.900024,100746
-122.850006,40.950001,976.950012,100750
-124.800003,35.100002,973.050049,100754
-126.75,33.150002,980.850037,100758
-124.800003,27.300001,984.75,100762
-128.699997,25.35,975,100766
-124.800003,27.300001,980.850037,100770
-122.850006,29.25,986.700012,100774
-124.800003,31.200001,980.850037,100778
-124.800003,35.100002,980.850037,100782
-124.800003,35.100002,976.950012,100786
-128.699997,31.200001,978.900024,100790
-128.699997,31.200001,980.850037,100794
-130.650009,29.25,984.75,100798
-126.75,35.100002,982.800049,100802
-124.800003,35.100002,978.900024,100806
-128.699997,33.150002,984.75,100810
-126.75,27.300001,978.900024,100814
-126.75,21.450001,978.900024,100818
-126.75,31.200001,976.950012,100822
-118.950005,27.300001,976.950012,100826
-126.75,31.200001,976.950012,100830
-122.850006,27.300001,980.850037,100834
-130.650009,31.200001,982.800049,100838
-128.699997,33.150002,986.700012,100842
-126.75,37.049999,986.700012,100846
-122.850006,33.150002,982.800049,100850
-126.75,31.200001,980.850037,100854
-128.699997,35.100002,980.850037,100858
-124.800003,35.100002,976.950012,100862
-126.75,35.100002,978.900024,100866
-128.699997,35.100002,982.800049,100870
-128.699997,31.200001,984.75,100874
-126.75,37.049999,984.75,100878
-126.75,35.100002,990.600037,100882
-130.650009,35.100002,978.900024,100886
-128.699997,33.150002,980.850037,100890
-128.699997,33.150002,980.850037,100894
-134.550003,33.150002,978.900024,100898
-128.699997,31.200001,982.800049,100902
-130.650009,31.200001,982.800049,100906
-126.75,31.200001,980.850037,100910
-128.699997,21.450001,982.800049,100914
-128.699997,29.25,982.800049,100918
-122.850006,35.100002,976.950012,100922
-122.850006,29.25,975,100926
-126.75,27.300001,976.950012,100930
-124.800003,33.150002,986.700012,100934
-124.800003,37.049999,986.700012,100938
-128.699997,33.150002,984.75,100942
-124.800003,31.200001,980.850037,100946
-122.850006,29.25,982.800049,100950
-124.800003,27.300001,988.650024,100954
-130.650009,33.150002,978.900024,100958
-124.800003,29.25,984.75,100962
-128.699997,29.25,982.800049,100966
-124.800003,27.300001,980.850037,100970
-126.75,25.35,982.800049,100974
-126.75,33.150002,976.950012,100978
-126.75,31.200001,978.900024,100982
-128.699997,39,978.900024,100986
-126.75,37.049999,975,100990
-122.850006,35.100002,978.900024,100994
-122.850006,33.150002,976.950012,100998
-122.850006,39,978.900024,101002
-122.850006,33.150002,986.700012,101006
-128.699997,37.049999,984.75,101010
-130.650009,31.200001,982.800049,101014
-128.699997,33.150002,984.75,101018
-124.800003,37.049999,980.850037,101022
-126.75,35.100002,976.950012,101026
-126.75,33.150002,984.75,101030
-130.650009,33.150002,984.75,101034
-128.699997,35.100002,980.850037,101038
-128.699997,35.100002,980.850037,101042
-128.699997,29.25,978.900024,101046
-126.75,25.35,984.75,101050
-122.850006,23.400002,982.800049,101054
-122.850006,29.25,982.800049,101058
-124.800003,27.300001,988.650024,101062
-132.600006,29.25,990.600037,101066
-128.699997,42.900002,986.700012,101070
-132.600006,27.300001,980.850037,101074
-128.699997,33.150002,980.850037,101078
-126.75,37.049999,980.850037,101082
-132.600006,35.100002,978.900024,101086
-136.5,33.150002,990.600037,101090
-132.600006,37.049999,986.700012,101094
-124.800003,29.25,986.700012,101098
-126.75,40.950001,978.900024,101102
-124.800003,39,978.900024,101106
-132.600006,31.200001,978.900024,101110
-130.650009,31.200001,982.800049,101114
-126.75,29.25,980.850037,101118
-126.75,31.200001,984.75,101122
-128.699997,33.150002,978.900024,101126
-122.850006,33.150002,978.900024,101130
-122.850006,35.100002,978.900024,101134
-122.850006,39,984.75,101138
-124.800003,33.150002,984.75,101142
-122.850006,27.300001,984.75,101146
-128.699997,29.25,982.800049,101150
-128.699997,33.150002,984.75,101154
-132.600006,33.150002,988.650024,101158
-132.600006,29.25,988.650024,101162
-126.75,31.200001,976.950012,101166
-124.800003,31.200001,980.850037,101170
-122.850006,29.25,980.850037,101174
-128.699997,33.150002,982.800049,101178
-130.650009,33.150002,984.75,101182
-126.75,35.100002,984.75,101186
-126.75,39,984.75,101190
-126.75,33.150002,980.850037,101194
-122.850006,37.049999,982.800049,101198
-128.699997,35.100002,980.850037,101202
-128.699997,33.150002,986.700012,101206
-132.600006,37.049999,982.800049,101210
-126.75,37.049999,978.900024,101214
-126.75,37.049999,973.050049,101218
-126.75,35.100002,984.75,101222
-124.800003,37.049999,988.650024,101226
-126.75,33.150002,980.850037,101230
-128.699997,29.25,984.75,101234
-122.850006,29.25,992.550049,101238
-124.800003,29.25,990.600037,101242
-118.950005,29.25,984.75,101246
-128.699997,35.100002,984.75,101250
-126.75,33.150002,980.850037,101254
-126.75,29.25,982.800049,101258
-122.850006,33.150002,982.800049,101262
-124.800003,35.100002,982.800049,101266
-128.699997,37.049999,982.800049,101270
-130.650009,27.300001,980.850037,101274
-138.449997,35.100002,978.900024,101278
-132.600006,31.200001,978.900024,101282
-130.650009,25.35,980.850037,101286
-124.800003,25.35,975,101290
-124.800003,31.200001,980.850037,101294
-128.699997,31.200001,980.850037,101298
-128.699997,31.200001,984.75,101302
-128.699997,35.100002,984.75,101306
-134.550003,31.200001,988.650024,101310
-128.699997,35.100002,990.600037,101314
-126.75,37.049999,984.75,101318
-130.650009,37.049999,976.950012,101322
-136.5,37.049999,982.800049,101326
-128.699997,35.100002,984.75,101330
-124.800003,35.100002,980.850037,101334
-126.75,33.150002,980.850037,101338
-128.699997,33.150002,976.950012,101342
-130.650009,31.200001,982.800049,101346
-128.699997,33.150002,984.75,101350
-126.75,25.35,984.75,101354
-130.650009,29.25,978.900024,101358
-130.650009,29.25,976.950012,101362
-128.699997,27.300001,976.950012,101366
-118.950005,33.150002,984.75,101370
-118.950005,27.300001,978.900024,101374
-128.699997,35.100002,982.800049,101378
-126.75,31.200001,990.600037,101382
-128.699997,35.100002,976.950012,101386
-128.699997,37.049999,980.850037,101390
-128.699997,33.150002,978.900024,101394
-122.850006,31.200001,984.75,101398
-120.900002,31.200001,986.700012,101402
-128.699997,29.25,980.850037,101406
-130.650009,29.25,978.900024,101410
-134.550003,31.200001,980.850037,101414
-132.600006,35.100002,978.900024,101418
-130.650009,35.100002,986.700012,101422
-120.900002,31.200001,980.850037,101426
-124.800003,33.150002,984.75,101430
-126.75,29.25,988.650024,101434
-124.800003,33.150002,990.600037,101438
-128.699997,35.100002,982.800049,101442
-136.5,35.100002,982.800049,101446
-132.600006,35.100002,976.950012,101450
-126.75,35.100002,980.850037,101454
-124.800003,33.150002,982.800049,101458
-128.699997,31.200001,976.950012,101462
-130.650009,29.25,984.75,101466
-124.800003,33.150002,986.700012,101470
-132.600006,29.25,988.650024,101474
-124.800003,27.300001,992.550049,101478
-126.75,37.049999,986.700012,101482
-124.800003,33.150002,980.850037,101486
-128.699997,37.049999,986.700012,101490
-124.800003,27.300001,988.650024,101494
-124.800003,29.25,980.850037,101498
-124.800003,27.300001,982.800049,101502
-128.699997,31.200001,976.950012,101506
-124.800003,31.200001,984.75,101510
-124.800003,25.35,984.75,101514
-128.699997,31.200001,982.800049,101518
-128.699997,31.200001,980.850037,101522
-124.800003,33.150002,978.900024,101526
-128.699997,35.100002,976.950012,101530
-128.699997,33.150002,976.950012,101534
-122.850006,40.950001,982.800049,101538
-126.75,35.100002,982.800049,101542
-124.800003,31.200001,982.800049,101546
-126.75,35.100002,976.950012,101550
-118.950005,35.100002,986.700012,101554
-120.900002,29.25,984.75,101558
-128.699997,35.100002,984.75,101562
-126.75,31.200001,980.850037,101566
-126.75,37.049999,982.800049,101570
-128.699997,33.150002,982.800049,101574
-132.600006,37.049999,982.800049,101578
-126.75,35.100002,980.850037,101582
-134.550003,35.100002,984.75,101586
-132.600006,33.150002,988.650024,101590
-130.650009,27.300001,986.700012,101594
-128.699997,27.300001,980.850037,101598
-128.699997,27.300001,984.75,101602
-126.75,23.400002,986.700012,101606
-122.850006,23.400002,984.75,101610
-128.699997,27.300001,984.75,101614
-130.650009,33.150002,982.800049,101618
-128.699997,31.200001,984.75,101622
-122.850006,31.200001,980.850037,101626
-120.900002,33.150002,984.75,101630
-122.850006,27.300001,984.75,101634
-122.850006,33.150002,982.800049,101638
-124.800003,29.25,982.800049,101642
-124.800003,33.150002,982.800049,101646
-130.650009,0,975,101650
-126.75,29.25,980.850037,101654
-128.699997,33.150002,988.650024,101658
-128.699997,31.200001,984.75,101662
-126.75,35.100002,980.850037,101666
-130.650009,33.150002,982.800049,101670
-126.75,31.200001,982.800049,101674
-124.800003,29.25,980.850037,101678
-126.75,27.300001,980.850037,101682
-122.850006,29.25,980.850037,101686
-122.850006,29.25,978.900024,101690
-126.75,33.150002,988.650024,101694
-124.800003,39,982.800049,101698
-132.600006,35.100002,984.75,101702
-128.699997,33.150002,988.650024,101706
-124.800003,27.300001,984.75,101710
-132.600006,21.450001,992.550049,101714
-128.699997,25.35,992.550049,101718
-128.699997,27.300001,982.800049,101722
-132.600006,25.35,984.75,101726
-122.850006,29.25,988.650024,101730
-120.900002,31.200001,982.800049,101734
-124.800003,33.150002,978.900024,101738
-130.650009,35.100002,976.950012,101742
-130.650009,35.100002,976.950012,101746
-126.75,35.100002,980.850037,101750
-124.800003,31.200001,980.850037,101754
-124.800003,37.049999,984.75,101758
-128.699997,29.25,984.75,101762
-126.75,31.200001,986.700012,101766
-124.800003,31.200001,980.850037,101770
-122.850006,21.450001,988.650024,101774
-128.699997,29.25,982.800049,101778
-130.650009,31.200001,986.700012,101782
-124.800003,31.200001,975,101786
-126.75,33.150002,982.800049,101790
-120.900002,29.25,975,101794
-130.650009,27.300001,990.600037,101798
-128.699997,31.200001,982.800049,101802
-126.75,33.150002,982.800049,101806
-122.850006,27.300001,980.850037,101810
-120.900002,25.35,982.800049,101814
-126.75,33.150002,980.850037,101818
-128.699997,31.200001,982.800049,101822
-128.699997,35.100002,976.950012,101826
-132.600006,35.100002,980.850037,101830
-128.699997,25.35,982.800049,101834
-122.850006,33.150002,986.700012,101838
-124.800003,35.100002,982.800049,101842
-128.699997,35.100002,980.850037,101846
-128.699997,33.150002,988.650024,101850
-124.800003,31.200001,990.600037,101854
-124.800003,31.200001,992.550049,101858
-124.800003,33.150002,978.900024,101862
-126.75,35.100002,988.650024,101866
-126.75,29.25,984.75,101870
-128.699997,39,984.75,101874
-128.699997,35.100002,980.850037,101878
-126.75,0,986.700012,101882
-130.650009,29.25,986.700012,101886
-124.800003,31.200001,988.650024,101890
-134.550003,35.100002,986.700012,101894
-130.650009,35.100002,988.650024,101898
-124.800003,31.200001,986.700012,101902
-124.800003,31.200001,975,101906
-128.699997,27.300001,971.100037,101910
-126.75,29.25,976.950012,101914
-124.800003,33.150002,984.75,101918
-126.75,29.25,984.75,101922
-132.600006,29.25,982.800049,101926
-130.650009,31.200001,980.850037,101930
-128.699997,33.150002,978.900024,101934
-132.600006,31.200001,982.800049,101938
-124.800003,35.100002,984.75,101942
-126.75,33.150002,988.650024,101946
-126.75,27.300001,980.850037,101950
-124.800003,29.25,982.800049,101954
-132.600006,25.35,982.800049,101958
-126.75,40.950001,984.75,101962
-122.850006,35.100002,986.700012,101966
-126.75,33.150002,984.75,101970
-124.800003,33.150002,988.650024,101974
-128.699997,39,986.700012,101978
-130.650009,35.100002,980.850037,101982
-126.75,35.100002,980.850037,101986
-124.800003,33.150002,982.800049,101990
-128.699997,37.049999,984.75,101994
-126.75,29.25,984.75,101998
-134.550003,33.150002,976.950012,102002
-130.650009,37.049999,982.800049,102006
-126.75,31.200001,982.800049,102010
-126.75,31.200001,988.650024,102014
-128.699997,31.200001,986.700012,102018
-128.699997,35.100002,990.600037,102022
-128.699997,35.100002,984.75,102026
-132.600006,35.100002,984.75,102030
-132.600006,27.300001,980.850037,102034
-128.699997,39,978.900024,102038
-134.550003,33.150002,980.850037,102042
-128.699997,31.200001,980.850037,102046
-130.650009,37.049999,982.800049,102050
-126.75,29.25,982.800049,102054
-126.75,33.150002,978.900024,102058
-124.800003,31.200001,982.800049,102062
-124.800003,33.150002,982.800049,102066
-126.75,35.100002,984.75,102070
-128.699997,35.100002,988.650024,102074
-130.650009,33.150002,986.700012,102078
-128.699997,27.300001,975,102082
-130.650009,27.300001,980.850037,102086
-126.75,29.25,988.650024,102090
-124.800003,29.25,986.700012,102094
-124.800003,35.100002,978.900024,102098
-130.650009,31.200001,980.850037,102102
-130.650009,31.200001,984.75,102106
-138.449997,33.150002,982.800049,102110
-132.600006,27.300001,982.800049,102114
-128.699997,25.35,980.850037,102118
-132.600006,31.200001,982.800049,102122
-134.550003,31.200001,982.800049,102126
-128.699997,27.300001,988.650024,102130
-132.600006,33.150002,986.700012,102134
-128.699997,31.200001,976.950012,102138
-130.650009,31.200001,976.950012,102142
-132.600006,27.300001,980.850037,102146
-126.75,29.25,982.800049,102150
-130.650009,27.300001,982.800049,102154
-132.600006,25.35,984.75,102158
-126.75,27.300001,978.900024,102162
-128.699997,33.150002,976.950012,102166
-126.75,33.150002,975,102170
-124.800003,37.049999,986.700012,102174
-120.900002,39,978.900024,102178
-128.699997,37.049999,980.850037,102182
-124.800003,33.150002,986.700012,102186
-124.800003,35.100002,986.700012,102190
-126.75,33.150002,976.950012,102194
-124.800003,33.150002,973.050049,102198
-124.800003,33.150002,978.900024,102202
-130.650009,35.100002,980.850037,102206
-126.75,37.049999,984.75,102210
-120.900002,35.100002,986.700012,102214
-126.75,37.049999,988.650024,102218
-124.800003,31.200001,984.75,102222
-120.900002,29.25,986.700012,102226
-132.600006,31.200001,982.800049,102230
-124.800003,35.100002,984.75,102234
-124.800003,37.049999,990.600037,102238
-126.75,40.950001,986.700012,102242
-124.800003,35.100002,984.75,102246
-120.900002,33.150002,982.800049,102250
-122.850006,33.150002,980.850037,102254
-128.699997,37.049999,984.75,102258
-124.800003,33.150002,978.900024,102262
-122.850006,33.150002,975,102266
-128.699997,31.200001,975,102270
-130.650009,31.200001,980.850037,102274
-128.699997,31.200001,980.850037,102278
-126.75,29.25,986.700012,102282
-128.699997,35.100002,982.800049,102286
-128.699997,35.100002,978.900024,102290
-126.75,39,980.850037,102294
-130.650009,37.049999,976.950012,102298
-128.699997,35.100002,980.850037,102302
-128.699997,35.100002,975,102306
-122.850006,35.100002,982.800049,102310
-126.75,33.150002,982.800049,102314
-128.699997,29.25,978.900024,102318
-128.699997,33.150002,978.900024,102322
-128.699997,31.200001,978.900024,102326
-130.650009,29.25,980.850037,102330
-130.650009,27.300001,982.800049,102334
-128.699997,33.150002,978.900024,102338
-136.5,37.049999,986.700012,102342
-134.550003,3.9,984.75,102346
-122.850006,33.150002,984.75,102350
-124.800003,31.200001,976.950012,102354
-126.75,29.25,978.900024,102358
-120.900002,39,978.900024,102362
-130.650009,40.950001,982.800049,102366
-130.650009,42.900002,980.850037,102370
-126.75,40.950001,982.800049,102374
-128.699997,33.150002,980.850037,102378
-124.800003,35.100002,980.850037,102382
-120.900002,33.150002,984.75,102386
-122.850006,37.049999,980.850037,102390
-122.850006,31.200001,980.850037,102394
-126.75,31.200001,980.850037,102398
-128.699997,33.150002,984.75,102402
-126.75,33.150002,984.75,102406
-136.5,31.200001,986.700012,102410
-128.699997,33.150002,984.75,102414
-128.699997,40.950001,988.650024,102418
-128.699997,37.049999,984.75,102422
-122.850006,39,978.900024,102426
-124.800003,37.049999,978.900024,102430
-132.600006,39,986.700012,102434
-128.699997,35.100002,975,102438
-132.600006,31.200001,980.850037,102442
-126.75,31.200001,978.900024,102446
-130.650009,29.25,976.950012,102450
-130.650009,35.100002,976.950012,102454
-126.75,35.100002,982.800049,102458
-124.800003,29.25,986.700012,102462
-128.699997,33.150002,976.950012,102466
-126.75,31.200001,976.950012,102470
-128.699997,31.200001,986.700012,102474
-134.550003,29.25,982.800049,102478
-130.650009,31.200001,975,102482
-126.75,31.200001,976.950012,102486
-126.75,37.049999,982.800049,102490
-122.850006,35.100002,971.100037,102494
-124.800003,33.150002,973.050049,102498
-132.600006,31.200001,982.800049,102502
-130.650009,27.300001,988.650024,102506
-128.699997,23.400002,984.75,102510
-126.75,29.25,984.75,102514
-130.650009,35.100002,976.950012,102518
-126.75,31.200001,984.75,102522
-122.850006,39,984.75,102526
-126.75,31.200001,988.650024,102530
-124.800003,31.200001,988.650024,102534
-128.699997,29.25,986.700012,102538
-132.600006,25.35,988.650024,102542
-134.550003,31.200001,984.75,102546
-130.650009,31.200001,992.550049,102550
-132.600006,31.200001,984.75,102554
-124.800003,29.25,978.900024,102558
-128.699997,27.300001,982.800049,102562
-126.75,29.25,980.850037,102566
-126.75,29.25,980.850037,102570
-124.800003,31.200001,980.850037,102574
-120.900002,29.25,978.900024,102578
-126.75,27.300001,973.050049,102582
-128.699997,31.200001,976.950012,102586
-126.75,29.25,980.850037,102590
-128.699997,33.150002,980.850037,102594
-130.650009,35.100002,982.800049,102598
-132.600006,33.150002,973.050049,102602
-128.699997,37.049999,980.850037,102606
-134.550003,35.100002,986.700012,102610
-126.75,37.049999,984.75,102614
-124.800003,35.100002,978.900024,102618
-132.600006,37.049999,980.850037,102622
-126.75,37.049999,982.800049,102626
-128.699997,35.100002,982.800049,102630
-122.850006,33.150002,986.700012,102634
-126.75,31.200001,982.800049,102638
-126.75,29.25,976.950012,102642
-124.800003,35.100002,982.800049,102646
-124.800003,23.400002,976.950012,102650
-128.699997,29.25,980.850037,102654
-134.550003,33.150002,988.650024,102658
-130.650009,35.100002,990.600037,102662
-128.699997,35.100002,982.800049,102666
-128.699997,31.200001,982.800049,102670
-128.699997,29.25,978.900024,102674
-130.650009,27.300001,975,102678
-128.699997,31.200001,980.850037,102682
-124.800003,35.100002,982.800049,102686
-124.800003,37.049999,982.800049,102690
-130.650009,33.150002,982.800049,102694
-126.75,33.150002,982.800049,102698
-132.600006,31.200001,978.900024,102702
-132.600006,31.200001,986.700012,102706
-128.699997,29.25,992.550049,102710
-128.699997,27.300001,976.950012,102714
-128.699997,29.25,988.650024,102718
-128.699997,33.150002,984.75,102722
-130.650009,31.200001,988.650024,102726
-128.699997,31.200001,988.650024,102730
-124.800003,35.100002,984.75,102734
-126.75,33.150002,982.800049,102738
-126.75,29.25,980.850037,102742
-124.800003,29.25,982.800049,102746
-126.75,27.300001,980.850037,102750
-95.550003,35.100002,986.700012,102754
-128.699997,31.200001,984.75,102758
-124.800003,31.200001,978.900024,102762
-122.850006,29.25,984.75,102766
-130.650009,35.100002,986.700012,102770
-128.699997,31.200001,986.700012,102774
-120.900002,31.200001,982.800049,102778
-124.800003,33.150002,978.900024,102782
-130.650009,39,984.75,102786
-126.75,35.100002,978.900024,102790
-130.650009,31.200001,978.900024,102794
-128.699997,29.25,984.75,102798
-126.75,35.100002,986.700012,102802
-122.850006,31.200001,986.700012,102806
-122.850006,31.200001,986.700012,102810
-130.650009,29.25,986.700012,102814
-128.699997,29.25,986.700012,102818
-130.650009,39,984.75,102822
-128.699997,33.150002,984.75,102826
-128.699997,27.300001,988.650024,102830
-134.550003,31.200001,980.850037,102834
-124.800003,31.200001,976.950012,102838
-126.75,33.150002,978.900024,102842
-120.900002,25.35,978.900024,102846
-126.75,23.400002,982.800049,102850
-126.75,29.25,982.800049,102854
-124.800003,29.25,982.800049,102858
-132.600006,27.300001,986.700012,102862
-130.650009,29.25,986.700012,102866
-128.699997,31.200001,980.850037,102870
-122.850006,29.25,980.850037,102874
-128.699997,31.200001,980.850037,102878
-126.75,35.100002,984.75,102882
-122.850006,37.049999,990.600037,102886
-120.900002,37.049999,988.650024,102890
-124.800003,37.049999,986.700012,102894
-122.850006,33.150002,990.600037,102898
-132.600006,29.25,980.850037,102902
-130.650009,35.100002,990.600037,102906
-132.600006,33.150002,990.600037,102910
-132.600006,33.150002,990.600037,102914
-126.75,35.100002,980.850037,102918
-124.800003,33.150002,982.800049,102922
-132.600006,33.150002,980.850037,102926
-130.650009,35.100002,980.850037,102930
-128.699997,35.100002,986.700012,102934
-126.75,37.049999,984.75,102938
-128.699997,39,988.650024,102942
-136.5,35.100002,976.950012,102946
-128.699997,37.049999,984.75,102950
-122.850006,29.25,978.900024,102954
-128.699997,23.400002,986.700012,102958
-124.800003,27.300001,980.850037,102962
-124.800003,27.300001,978.900024,102966
-126.75,31.200001,976.950012,102970
-122.850006,35.100002,978.900024,102974
-122.850006,35.100002,978.900024,102978
-122.850006,39,982.800049,102982
-154.050003,37.049999,986.700012,102986
-124.800003,29.25,984.75,102990
-124.800003,37.049999,986.700012,102994
-126.75,35.100002,982.800049,102998
-124.800003,31.200001,984.75,103002
-128.699997,31.200001,980.850037,103006
-128.699997,27.300001,988.650024,103010
-128.699997,27.300001,986.700012,103014
-128.699997,31.200001,982.800049,103018
-126.75,27.300001,980.850037,103022
-126.75,35.100002,986.700012,103026
-128.699997,31.200001,976.950012,103030
-128.699997,33.150002,976.950012,103034
-132.600006,27.300001,988.650024,103038
-132.600006,29.25,990.600037,103042
-126.75,31.200001,980.850037,103046
-128.699997,29.25,978.900024,103050
-118.950005,33.150002,975,103054
-124.800003,25.35,982.800049,103058
-126.75,19.5,982.800049,103062
-128.699997,23.400002,986.700012,103066
-126.75,27.300001,986.700012,103070
-130.650009,35.100002,982.800049,103074
-126.75,39,978.900024,103078
-122.850006,37.049999,982.800049,103082
-124.800003,37.049999,982.800049,103086
-126.75,40.950001,988.650024,103090
-124.800003,37.049999,992.550049,103094
-130.650009,33.150002,990.600037,103098
-124.800003,29.25,986.700012,103102
-124.800003,29.25,976.950012,103106
-130.650009,31.200001,982.800049,103110
-120.900002,35.100002,986.700012,103114
-126.75,33.150002,984.75,103118
-132.600006,35.100002,986.700012,103122
-130.650009,29.25,984.75,103126
-132.600006,31.200001,984.75,103130
-128.699997,29.25,980.850037,103134
-126.75,35.100002,980.850037,103138
-124.800003,39,982.800049,103142
-130.650009,35.100002,986.700012,103146
-126.75,33.150002,986.700012,103150
-124.800003,39,986.700012,103154
-130.650009,35.100002,984.75,103158
-130.650009,31.200001,982.800049,103162
-128.699997,33.150002,980.850037,103166
-128.699997,35.100002,980.850037,103170
-126.75,33.150002,976.950012,103174
-128.699997,37.049999,976.950012,103178
-128.699997,33.150002,982.800049,103182
-126.75,35.100002,980.850037,103186
-126.75,35.100002,988.650024,103190
-124.800003,35.100002,990.600037,103194
-132.600006,39,982.800049,103198
-124.800003,37.049999,984.75,103202
-132.600006,35.100002,986.700012,103206
-126.75,33.150002,982.800049,103210
-128.699997,35.100002,982.800049,103214
-128.699997,3.9,978.900024,103218
-124.800003,27.300001,978.900024,103222
-128.699997,33.150002,976.950012,103226
-128.699997,35.100002,982.800049,103230
-126.75,31.200001,980.850037,103234
-128.699997,29.25,984.75,103238
-136.5,35.100002,984.75,103242
-130.650009,37.049999,986.700012,103246
-130.650009,40.950001,980.850037,103250
-120.900002,29.25,980.850037,103254
-124.800003,33.150002,984.75,103258
-128.699997,33.150002,976.950012,103262
-124.800003,31.200001,982.800049,103266
-126.75,39,984.75,103270
-124.800003,35.100002,990.600037,103274
-122.850006,31.200001,984.75,103278
-128.699997,29.25,980.850037,103282
-130.650009,29.25,978.900024,103286
-124.800003,29.25,980.850037,103290
-124.800003,31.200001,982.800049,103294
-126.75,35.100002,973.050049,103298
-122.850006,29.25,984.75,103302
-124.800003,31.200001,984.75,103306
-128.699997,33.150002,986.700012,103310
-126.75,37.049999,990.600037,103314
-134.550003,35.100002,982.800049,103318
-128.699997,39,992.550049,103322
-126.75,31.200001,982.800049,103326
-128.699997,29.25,980.850037,103330
-126.75,33.150002,984.75,103334
-120.900002,31.200001,976.950012,103338
-124.800003,23.400002,982.800049,103342
-128.699997,25.35,982.800049,103346
-132.600006,27.300001,980.850037,103350
-128.699997,25.35,990.600037,103354
-130.650009,27.300001,982.800049,103358
-126.75,27.300001,976.950012,103362
-134.550003,35.100002,971.100037,103366
-130.650009,31.200001,978.900024,103370
-128.699997,27.300001,978.900024,103374
-126.75,29.25,976.950012,103378
-128.699997,35.100002,982.800049,103382
-128.699997,35.100002,975,103386
-128.699997,31.200001,986.700012,103390
-130.650009,39,986.700012,103394
-128.699997,35.100002,980.850037,103398
-124.800003,35.100002,980.850037,103402
-128.699997,35.100002,978.900024,103406
-126.75,31.200001,978.900024,103410
-124.800003,31.200001,980.850037,103414
-128.699997,31.200001,982.800049,103418
-130.650009,0,982.800049,103422
-134.550003,29.25,982.800049,103426
-118.950005,25.35,984.75,103430
-124.800003,29.25,980.850037,103434
-126.75,29.25,984.75,103438
-124.800003,23.400002,990.600037,103442
-124.800003,31.200001,982.800049,103446
-130.650009,37.049999,982.800049,103450
-126.75,27.300001,980.850037,103454
-126.75,25.35,978.900024,103458
-122.850006,29.25,980.850037,103462
-124.800003,35.100002,978.900024,103466
-128.699997,35.100002,976.950012,103470
-128.699997,33.150002,982.800049,103474
-122.850006,29.25,986.700012,103478
-126.75,29.25,980.850037,103482
-124.800003,31.200001,982.800049,103486
-124.800003,29.25,978.900024,103490
-122.850006,39,978.900024,103494
-120.900002,33.150002,980.850037,103498
-130.650009,33.150002,988.650024,103502
-130.650009,35.100002,982.800049,103506
-132.600006,33.150002,982.800049,103510
-132.600006,33.150002,984.75,103514
-130.650009,35.100002,982.800049,103518
-124.800003,25.35,982.800049,103522
-126.75,31.200001,980.850037,103526
-124.800003,31.200001,984.75,103530
-126.75,31.200001,984.75,103534
-132.600006,40.950001,980.850037,103538
-132.600006,35.100002,976.950012,103542
-126.75,35.100002,978.900024,103546
-120.900002,35.100002,986.700012,103550
-122.850006,33.150002,978.900024,103554
-120.900002,27.300001,984.75,103558
-128.699997,33.150002,988.650024,103562
-118.950005,27.300001,980.850037,103566
-117,40.950001,986.700012,103570
-118.950005,35.100002,976.950012,103574
-122.850006,37.049999,980.850037,103578
-122.850006,33.150002,988.650024,103582
-120.900002,37.049999,988.650024,103586
-124.800003,31.200001,982.800049,103590
-120.900002,29.25,988.650024,103594
-126.75,33.150002,990.600037,103598
-126.75,35.100002,978.900024,103602
-126.75,37.049999,976.950012,103606
-124.800003,35.100002,975,103610
-128.699997,31.200001,982.800049,103614
-126.75,27.300001,980.850037,103618
-126.75,31.200001,980.850037,103622
-124.800003,31.200001,976.950012,103626
-128.699997,33.150002,984.75,103630
-124.800003,44.850002,984.75,103634
-126.75,39,984.75,103638
-122.850006,39,988.650024,103642
-124.800003,37.049999,986.700012,103646
-128.699997,33.150002,976.950012,103650
-130.650009,37.049999,984.75,103654
-132.600006,33.150002,980.850037,103658
-126.75,39,986.700012,103662
-128.699997,35.100002,988.650024,103666
-126.75,35.100002,984.75,103670
-122.850006,29.25,984.75,103674
-120.900002,33.150002,986.700012,103678
-120.900002,35.100002,986.700012,103682
-122.850006,35.100002,980.850037,103686
-130.650009,33.150002,980.850037,103690
-128.699997,35.100002,982.800049,103694
-128.699997,35.100002,984.75,103698
-132.600006,35.100002,976.950012,103702
-128.699997,33.150002,976.950012,103706
-126.75,31.200001,975,103710
-128.699997,29.25,980.850037,103714
-122.850006,33.150002,975,103718
-126.75,33.150002,978.900024,103722
-128.699997,29.25,984.75,103726
-132.600006,33.150002,988.650024,103730
-128.699997,35.100002,984.75,103734
-128.699997,35.100002,984.75,103738
-126.75,29.25,986.700012,103742
-118.950005,27.300001,988.650024,103746
-124.800003,33.150002,988.650024,103750
-134.550003,39,984.75,103754
-132.600006,35.100002,982.800049,103758
-134.550003,27.300001,986.700012,103762
-128.699997,31.200001,980.850037,103766
-130.650009,33.150002,988.650024,103770
-130.650009,35.100002,980.850037,103774
-124.800003,33.150002,980.850037,103778
-128.699997,29.25,978.900024,103782
-126.75,35.100002,978.900024,103786
-124.800003,29.25,980.850037,103790
-124.800003,39,980.850037,103794
-134.550003,37.049999,980.850037,103798
-130.650009,33.150002,984.75,103802
-122.850006,29.25,984.75,103806
-126.75,35.100002,980.850037,103810
-126.75,33.150002,976.950012,103814
-128.699997,37.049999,978.900024,103818
-126.75,33.150002,978.900024,103822
-128.699997,35.100002,980.850037,103826
-128.699997,33.150002,980.850037,103830
-126.75,39,988.650024,103834
-124.800003,35.100002,980.850037,103838
-126.75,31.200001,984.75,103842
-134.550003,29.25,982.800049,103846
-124.800003,31.200001,986.700012,103850
-128.699997,27.300001,984.75,103854
-124.800003,31.200001,984.75,103858
-126.75,31.200001,982.800049,103862
-124.800003,31.200001,976.950012,103866
-126.75,29.25,982.800049,103870
-126.75,25.35,982.800049,103874
-126.75,31.200001,978.900024,103878
-126.75,29.25,982.800049,103882
-122.850006,23.400002,980.850037,103886
-126.75,27.300001,982.800049,103890
-134.550003,25.35,984.75,103894
-128.699997,33.150002,976.950012,103898
-122.850006,31.200001,986.700012,103902
-124.800003,27.300001,986.700012,103906
-126.75,37.049999,978.900024,103910
-128.699997,31.200001,978.900024,103914
-128.699997,35.100002,984.75,103918
-126.75,35.100002,988.650024,103922
-124.800003,33.150002,988.650024,103926
-122.850006,29.25,990.600037,103930
-124.800003,33.150002,988.650024,103934
-118.950005,39,982.800049,103938
-122.850006,33.150002,984.75,103942
-128.699997,37.049999,978.900024,103946
-128.699997,29.25,982.800049,103950
-134.550003,29.25,976.950012,103954
-128.699997,33.150002,984.75,103958
-126.75,29.25,986.700012,103962
-128.699997,33.150002,986.700012,103966
-128.699997,31.200001,986.700012,103970
-126.75,25.35,984.75,103974
-126.75,25.35,992.550049,103978
-126.75,25.35,992.550049,103982
-128.699997,29.25,986.700012,103986
-128.699997,35.100002,988.650024,103990
-128.699997,35.100002,988.650024,103994
-130.650009,33.150002,988.650024,103998
-124.800003,39,988.650024,104002
-130.650009,29.25,982.800049,104006
-130.650009,35.100002,986.700012,104010
-122.850006,39,988.650024,104014
-126.75,31.200001,980.850037,104018
-130.650009,33.150002,978.900024,104022
-126.75,33.150002,975,104026
-126.75,33.150002,975,104030
-124.800003,33.150002,978.900024,104034
-124.800003,29.25,982.800049,104038
-128.699997,31.200001,986.700012,104042
-126.75,33.150002,982.800049,104046
-128.699997,37.049999,980.850037,104050
-126.75,37.049999,982.800049,104054
-122.850006,40.950001,986.700012,104058
-124.800003,29.25,980.850037,104062
-122.850006,25.35,978.900024,104066
-130.650009,31.200001,975,104070
-136.5,40.950001,973.050049,104074
-128.699997,29.25,980.850037,104078
-128.699997,27.300001,982.800049,104082
-122.850006,37.049999,982.800049,104086
-128.699997,29.25,980.850037,104090
-124.800003,29.25,984.75,104094
-126.75,29.25,982.800049,104098
-126.75,27.300001,978.900024,104102
-126.75,35.100002,982.800049,104106
-128.699997,31.200001,978.900024,104110
-124.800003,29.25,980.850037,104114
-128.699997,23.400002,986.700012,104118
-124.800003,37.049999,978.900024,104122
-130.650009,35.100002,986.700012,104126
-130.650009,35.100002,978.900024,104130
-130.650009,33.150002,976.950012,104134
-128.699997,35.100002,978.900024,104138
-132.600006,39,978.900024,104142
-130.650009,33.150002,976.950012,104146
-122.850006,25.35,980.850037,104150
-122.850006,33.150002,982.800049,104154
-128.699997,31.200001,984.75,104158
-132.600006,35.100002,982.800049,104162
-132.600006,35.100002,986.700012,104166
-128.699997,42.900002,982.800049,104170
-134.550003,33.150002,980.850037,104174
-122.850006,35.100002,982.800049,104178
-120.900002,31.200001,980.850037,104182
-118.950005,27.300001,978.900024,104186
-120.900002,27.300001,984.75,104190
-124.800003,29.25,980.850037,104194
-126.75,33.150002,984.75,104198
-120.900002,37.049999,988.650024,104202
-128.699997,40.950001,982.800049,104206
-122.850006,31.200001,980.850037,104210
-128.699997,29.25,980.850037,104214
-128.699997,31.200001,984.75,104218
-132.600006,31.200001,984.75,104222
-126.75,31.200001,984.75,104226
-122.850006,31.200001,978.900024,104230
-126.75,35.100002,978.900024,104234
-120.900002,37.049999,984.75,104238
-120.900002,39,988.650024,104242
-124.800003,31.200001,988.650024,104246
-128.699997,29.25,988.650024,104250
-126.75,33.150002,982.800049,104254
-126.75,31.200001,982.800049,104258
-126.75,29.25,982.800049,104262
-124.800003,42.900002,976.950012,104266
-126.75,39,976.950012,104270
-124.800003,33.150002,986.700012,104274
-130.650009,29.25,980.850037,104278
-128.699997,35.100002,982.800049,104282
-126.75,35.100002,976.950012,104286
-132.600006,33.150002,978.900024,104290
-134.550003,35.100002,978.900024,104294
-130.650009,39,980.850037,104298
-124.800003,35.100002,976.950012,104302
-122.850006,31.200001,994.5,104306
-124.800003,31.200001,990.600037,104310
-124.800003,35.100002,986.700012,104314
-124.800003,29.25,982.800049,104318
-128.699997,31.200001,980.850037,104322
-132.600006,29.25,980.850037,104326
-130.650009,33.150002,980.850037,104330
-130.650009,33.150002,978.900024,104334
-130.650009,29.25,980.850037,104338
-126.75,31.200001,986.700012,104342
-134.550003,31.200001,984.75,104346
-132.600006,39,978.900024,104350
-126.75,27.300001,980.850037,104354
-124.800003,29.25,988.650024,104358
-128.699997,27.300001,984.75,104362
-126.75,29.25,982.800049,104366
-122.850006,31.200001,980.850037,104370
-118.950005,39,973.050049,104374
-124.800003,33.150002,973.050049,104378
-126.75,33.150002,980.850037,104382
-126.75,35.100002,984.75,104386
-124.800003,35.100002,984.75,104390
-122.850006,37.049999,988.650024,104394
-130.650009,39,982.800049,104398
-130.650009,27.300001,976.950012,104402
-128.699997,25.35,988.650024,104406
-120.900002,29.25,982.800049,104410
-124.800003,29.25,988.650024,104414
-130.650009,33.150002,986.700012,104418
-124.800003,35.100002,978.900024,104422
-124.800003,35.100002,976.950012,104426
-122.850006,35.100002,980.850037,104430
-118.950005,37.049999,984.75,104434
-126.75,27.300001,988.650024,104438
-128.699997,29.25,978.900024,104442
-124.800003,40.950001,980.850037,104446
-118.950005,35.100002,980.850037,104450
-124.800003,39,978.900024,104454
-128.699997,33.150002,982.800049,104458
-126.75,33.150002,982.800049,104462
-122.850006,39,984.75,104466
-126.75,29.25,984.75,104470
-122.850006,35.100002,990.600037,104474
-126.75,39,976.950012,104478
-126.75,31.200001,975,104482
-130.650009,35.100002,980.850037,104486
-128.699997,37.049999,984.75,104490
-136.5,39,982.800049,104494
-136.5,37.049999,978.900024,104498
-128.699997,40.950001,976.950012,104502
-126.75,37.049999,982.800049,104506
-130.650009,33.150002,980.850037,104510
-128.699997,29.25,980.850037,104514
-132.600006,29.25,978.900024,104518
-128.699997,33.150002,984.75,104522
-124.800003,35.100002,976.950012,104526
-122.850006,37.049999,978.900024,104530
-130.650009,40.950001,986.700012,104534
-128.699997,35.100002,980.850037,104538
-128.699997,27.300001,978.900024,104542
-128.699997,35.100002,986.700012,104546
-128.699997,27.300001,984.75,104550
-126.75,29.25,982.800049,104554
-124.800003,33.150002,982.800049,104558
-136.5,33.150002,975,104562
-132.600006,35.100002,978.900024,104566
-128.699997,35.100002,984.75,104570
-128.699997,37.049999,980.850037,104574
-130.650009,29.25,980.850037,104578
-128.699997,0,982.800049,104582
-120.900002,29.25,982.800049,104586
-126.75,33.150002,988.650024,104590
-124.800003,29.25,988.650024,104594
-124.800003,29.25,982.800049,104598
-124.800003,39,975,104602
-122.850006,31.200001,975,104606
-122.850006,29.25,978.900024,104610
-128.699997,40.950001,990.600037,104614
-130.650009,37.049999,990.600037,104618
-130.650009,35.100002,984.75,104622
-126.75,33.150002,978.900024,104626
-126.75,37.049999,978.900024,104630
-118.950005,29.25,975,104634
-115.050003,39,976.950012,104638
-120.900002,40.950001,984.75,104642
-126.75,37.049999,986.700012,104646
-130.650009,33.150002,984.75,104650
-134.550003,37.049999,976.950012,104654
-130.650009,35.100002,978.900024,104658
-126.75,35.100002,988.650024,104662
-126.75,33.150002,982.800049,104666
-122.850006,33.150002,986.700012,104670
-126.75,33.150002,982.800049,104674
-128.699997,33.150002,982.800049,104678
-130.650009,31.200001,990.600037,104682
-126.75,25.35,982.800049,104686
-130.650009,27.300001,982.800049,104690
-128.699997,27.300001,982.800049,104694
-126.75,31.200001,978.900024,104698
-124.800003,31.200001,976.950012,104702
-128.699997,29.25,980.850037,104706
-122.850006,27.300001,978.900024,104710
-124.800003,27.300001,978.900024,104714
-124.800003,37.049999,986.700012,104718
-128.699997,29.25,982.800049,104722
-122.850006,29.25,986.700012,104726
-126.75,29.25,982.800049,104730
-128.699997,35.100002,980.850037,104734
-130.650009,33.150002,984.75,104738
-126.75,31.200001,978.900024,104742
-124.800003,31.200001,978.900024,104746
-128.699997,35.100002,980.850037,104750
-130.650009,35.100002,978.900024,104754
-120.900002,37.049999,980.850037,104758
-128.699997,37.049999,986.700012,104762
-130.650009,33.150002,982.800049,104766
-130.650009,35.100002,975,104770
-128.699997,25.35,984.75,104774
-128.699997,29.25,980.850037,104778
-130.650009,35.100002,988.650024,104782
-124.800003,29.25,986.700012,104786
-128.699997,35.100002,986.700012,104790
-124.800003,25.35,984.75,104794
-126.75,33.150002,984.75,104798
-130.650009,33.150002,988.650024,104802
-126.75,35.100002,986.700012,104806
-126.75,25.35,982.800049,104810
-124.800003,31.200001,984.75,104814
-124.800003,31.200001,986.700012,104818
-128.699997,29.25,980.850037,104822
-130.650009,29.25,980.850037,104826
-126.75,33.150002,976.950012,104830
-124.800003,35.100002,980.850037,104834
-128.699997,37.049999,986.700012,104838
-126.75,39,978.900024,104842
-128.699997,35.100002,976.950012,104846
-126.75,31.200001,978.900024,104850
-132.600006,31.200001,976.950012,104854
-122.850006,29.25,980.850037,104858
-120.900002,35.100002,978.900024,104862
-124.800003,35.100002,986.700012,104866
-130.650009,35.100002,980.850037,104870
-130.650009,37.049999,980.850037,104874
-132.600006,37.049999,982.800049,104878
-134.550003,37.049999,982.800049,104882
-130.650009,33.150002,969.150024,104886
-130.650009,29.25,976.950012,104890
-124.800003,31.200001,980.850037,104894
-126.75,33.150002,976.950012,104898
-132.600006,35.100002,984.75,104902
-128.699997,37.049999,978.900024,104906
-126.75,35.100002,978.900024,104910
-130.650009,31.200001,976.950012,104914
-128.699997,39,980.850037,104918
-130.650009,35.100002,980.850037,104922
-126.75,37.049999,984.75,104926
-126.75,35.100002,973.050049,104930
-130.650009,29.25,982.800049,104934
-130.650009,29.25,986.700012,104938
-126.75,29.25,978.900024,104942
-120.900002,31.200001,980.850037,104946
-124.800003,31.200001,990.600037,104950
-128.699997,31.200001,988.650024,104954
-124.800003,31.200001,986.700012,104958
-124.800003,31.200001,986.700012,104962
-126.75,35.100002,980.850037,104966
-124.800003,31.200001,986.700012,104970
-130.650009,29.25,982.800049,104974
-126.75,33.150002,984.75,104978
-124.800003,35.100002,978.900024,104982
-122.850006,31.200001,978.900024,104986
-124.800003,25.35,980.850037,104990
-128.699997,23.400002,978.900024,104994
-124.800003,37.049999,976.950012,104998
-128.699997,33.150002,984.75,105002
-128.699997,31.200001,976.950012,105006
-128.699997,27.300001,984.75,105010
-132.600006,29.25,994.5,105014
-132.600006,37.049999,990.600037,105018
-130.650009,31.200001,990.600037,105022
-130.650009,35.100002,984.75,105026
-130.650009,31.200001,982.800049,105030
-126.75,35.100002,976.950012,105034
-126.75,33.150002,982.800049,105038
-124.800003,35.100002,984.75,105042
-122.850006,33.150002,980.850037,105046
-124.800003,33.150002,988.650024,105050
-122.850006,27.300001,984.75,105054
-126.75,31.200001,986.700012,105058
-126.75,35.100002,984.75,105062
-124.800003,33.150002,982.800049,105066
-126.75,29.25,975,105070
-122.850006,27.300001,971.100037,105074
-132.600006,29.25,978.900024,105078
-126.75,31.200001,986.700012,105082
-126.75,33.150002,986.700012,105086
-126.75,25.35,982.800049,105090
-126.75,33.150002,980.850037,105094
-124.800003,37.049999,990.600037,105098
-126.75,35.100002,986.700012,105102
-126.75,29.25,982.800049,105106
-124.800003,27.300001,980.850037,105110
-132.600006,33.150002,984.75,105114
-128.699997,37.049999,984.75,105118
-128.699997,39,982.800049,105122
-130.650009,37.049999,988.650024,105126
-122.850006,35.100002,984.75,105130
-124.800003,31.200001,980.850037,105134
-130.650009,31.200001,982.800049,105138
-130.650009,27.300001,986.700012,105142
-124.800003,31.200001,982.800049,105146
-126.75,31.200001,984.75,105150
-130.650009,29.25,982.800049,105154
-128.699997,31.200001,978.900024,105158
-134.550003,27.300001,984.75,105162
-128.699997,31.200001,990.600037,105166
-128.699997,29.25,984.75,105170
-124.800003,39,988.650024,105174
-126.75,39,988.650024,105178
-128.699997,23.400002,980.850037,105182
-124.800003,33.150002,978.900024,105186
-128.699997,33.150002,984.75,105190
-128.699997,35.100002,986.700012,105194
-124.800003,35.100002,988.650024,105198
-124.800003,37.049999,978.900024,105202
-124.800003,33.150002,976.950012,105206
-122.850006,31.200001,980.850037,105210
-122.850006,33.150002,980.850037,105214
-124.800003,37.049999,980.850037,105218
-154.050003,35.100002,982.800049,105222
-126.75,25.35,980.850037,105226
-122.850006,33.150002,975,105230
-128.699997,33.150002,976.950012,105234
-122.850006,33.150002,982.800049,105238
-124.800003,37.049999,986.700012,105242
-124.800003,33.150002,978.900024,105246
-130.650009,40.950001,975,105250
-124.800003,35.100002,978.900024,105254
-126.75,35.100002,978.900024,105258
-124.800003,31.200001,984.75,105262
-128.699997,37.049999,988.650024,105266
-130.650009,35.100002,986.700012,105270
-126.75,35.100002,984.75,105274
-126.75,37.049999,978.900024,105278
-124.800003,29.25,978.900024,105282
-126.75,37.049999,978.900024,105286
-128.699997,33.150002,978.900024,105290
-126.75,31.200001,984.75,105294
-124.800003,31.200001,984.75,105298
-130.650009,27.300001,988.650024,105302
-126.75,25.35,984.75,105306
-122.850006,31.200001,984.75,105310
-128.699997,33.150002,982.800049,105314
-126.75,29.25,984.75,105318
-126.75,29.25,980.850037,105322
-130.650009,29.25,978.900024,105326
-128.699997,35.100002,982.800049,105330
-128.699997,29.25,976.950012,105334
-128.699997,31.200001,976.950012,105338
-122.850006,31.200001,978.900024,105342
-118.950005,35.100002,984.75,105346
-126.75,31.200001,986.700012,105350
-122.850006,39,982.800049,105354
-126.75,40.950001,988.650024,105358
-122.850006,40.950001,988.650024,105362
-124.800003,40.950001,984.75,105366
-118.950005,31.200001,980.850037,105370
-118.950005,33.150002,978.900024,105374
-126.75,29.25,982.800049,105378
-124.800003,27.300001,984.75,105382
-124.800003,33.150002,984.75,105386
-120.900002,39,982.800049,105390
-122.850006,25.35,978.900024,105394
-126.75,27.300001,980.850037,105398
-132.600006,33.150002,978.900024,105402
-128.699997,37.049999,976.950012,105406
-126.75,40.950001,978.900024,105410
-122.850006,33.150002,982.800049,105414
-120.900002,31.200001,982.800049,105418
-126.75,27.300001,980.850037,105422
-128.699997,33.150002,980.850037,105426
-132.600006,33.150002,984.75,105430
-126.75,29.25,984.75,105434
-122.850006,27.300001,988.650024,105438
-128.699997,37.049999,978.900024,105442
-132.600006,37.049999,976.950012,105446
-128.699997,31.200001,984.75,105450
-128.699997,33.150002,986.700012,105454
-126.75,37.049999,982.800049,105458
-134.550003,35.100002,984.75,105462
-130.650009,35.100002,982.800049,105466
-132.600006,31.200001,980.850037,105470
-132.600006,37.049999,984.75,105474
-132.600006,29.25,984.75,105478
-130.650009,35.100002,978.900024,105482
-132.600006,35.100002,992.550049,105486
-130.650009,25.35,990.600037,105490
-124.800003,29.25,980.850037,105494
-126.75,29.25,984.75,105498
-126.75,33.150002,984.75,105502
-124.800003,31.200001,990.600037,105506
-120.900002,33.150002,980.850037,105510
-126.75,35.100002,975,105514
-124.800003,27.300001,978.900024,105518
-126.75,33.150002,980.850037,105522
-124.800003,33.150002,978.900024,105526
-124.800003,31.200001,976.950012,105530
-130.650009,31.200001,986.700012,105534
-128.699997,33.150002,982.800049,105538
-132.600006,37.049999,980.850037,105542
-130.650009,35.100002,988.650024,105546
-124.800003,35.100002,986.700012,105550
-128.699997,31.200001,980.850037,105554
-134.550003,31.200001,988.650024,105558
-132.600006,23.400002,982.800049,105562
-128.699997,25.35,978.900024,105566
-124.800003,27.300001,975,105570
-130.650009,35.100002,988.650024,105574
-122.850006,31.200001,986.700012,105578
-117,40.950001,984.75,105582
-120.900002,42.900002,980.850037,105586
-128.699997,33.150002,984.75,105590
-128.699997,33.150002,982.800049,105594
-124.800003,33.150002,982.800049,105598
-130.650009,27.300001,988.650024,105602
-132.600006,31.200001,986.700012,105606
-134.550003,37.049999,982.800049,105610
-128.699997,37.049999,982.800049,105614
-128.699997,37.049999,988.650024,105618
-130.650009,35.100002,984.75,105622
-128.699997,35.100002,978.900024,105626
-130.650009,33.150002,986.700012,105630
-128.699997,29.25,984.75,105634
-128.699997,29.25,990.600037,105638
-128.699997,31.200001,986.700012,105642
-124.800003,35.100002,980.850037,105646
-130.650009,37.049999,986.700012,105650
-126.75,33.150002,978.900024,105654
-124.800003,33.150002,978.900024,105658
-126.75,39,980.850037,105662
-126.75,39,982.800049,105666
-134.550003,39,976.950012,105670
-124.800003,35.100002,984.75,105674
-126.75,39,980.850037,105678
-130.650009,29.25,986.700012,105682
-132.600006,31.200001,984.75,105686
-130.650009,27.300001,990.600037,105690
-130.650009,25.35,984.75,105694
-128.699997,23.400002,990.600037,105698
-128.699997,29.25,976.950012,105702
-128.699997,31.200001,980.850037,105706
-130.650009,33.150002,978.900024,105710
-122.850006,31.200001,978.900024,105714
-134.550003,31.200001,980.850037,105718
-132.600006,25.35,982.800049,105722
-128.699997,33.150002,982.800049,105726
-130.650009,33.150002,986.700012,105730
-124.800003,31.200001,980.850037,105734
-130.650009,29.25,988.650024,105738
-126.75,25.35,990.600037,105742
-122.850006,29.25,980.850037,105746
-128.699997,29.25,976.950012,105750
-132.600006,35.100002,978.900024,105754
-122.850006,29.25,984.75,105758
-124.800003,37.049999,982.800049,105762
-132.600006,27.300001,984.75,105766
-134.550003,31.200001,984.75,105770
-126.75,33.150002,988.650024,105774
-124.800003,40.950001,982.800049,105778
-124.800003,39,980.850037,105782
-124.800003,39,980.850037,105786
-122.850006,35.100002,978.900024,105790
-128.699997,35.100002,976.950012,105794
-130.650009,37.049999,986.700012,105798
-126.75,27.300001,984.75,105802
-128.699997,29.25,984.75,105806
-130.650009,33.150002,982.800049,105810
-134.550003,29.25,980.850037,105814
-130.650009,29.25,980.850037,105818
-124.800003,35.100002,980.850037,105822
-126.75,33.150002,984.75,105826
-124.800003,31.200001,986.700012,105830
-126.75,35.100002,980.850037,105834
-126.75,33.150002,980.850037,105838
-124.800003,37.049999,984.75,105842
-130.650009,35.100002,980.850037,105846
-126.75,31.200001,982.800049,105850
-128.699997,31.200001,976.950012,105854
-126.75,29.25,978.900024,105858
-128.699997,31.200001,980.850037,105862
-130.650009,33.150002,988.650024,105866
-130.650009,33.150002,982.800049,105870
-132.600006,33.150002,984.75,105874
-126.75,29.25,978.900024,105878
-130.650009,31.200001,976.950012,105882
-132.600006,29.25,982.800049,105886
-128.699997,27.300001,986.700012,105890
-130.650009,27.300001,982.800049,105894
-124.800003,31.200001,978.900024,105898
-126.75,33.150002,978.900024,105902
-132.600006,37.049999,978.900024,105906
-128.699997,37.049999,984.75,105910
-128.699997,35.100002,988.650024,105914
-130.650009,35.100002,984.75,105918
-128.699997,33.150002,982.800049,105922
-128.699997,31.200001,980.850037,105926
-130.650009,29.25,980.850037,105930
-134.550003,29.25,978.900024,105934
-130.650009,29.25,982.800049,105938
-124.800003,27.300001,980.850037,105942
-128.699997,29.25,988.650024,105946
-126.75,29.25,984.75,105950
-130.650009,29.25,975,105954
-128.699997,31.200001,975,105958
-120.900002,29.25,982.800049,105962
-118.950005,29.25,984.75,105966
-122.850006,27.300001,980.850037,105970
-124.800003,29.25,980.850037,105974
-132.600006,31.200001,973.050049,105978
-132.600006,39,984.75,105982
-132.600006,37.049999,978.900024,105986
-126.75,31.200001,980.850037,105990
-124.800003,33.150002,984.75,105994
-124.800003,31.200001,978.900024,105998
-122.850006,31.200001,982.800049,106002
-128.699997,27.300001,984.75,106006
-128.699997,33.150002,978.900024,106010
-128.699997,37.049999,982.800049,106014
-128.699997,35.100002,982.800049,106018
-126.75,31.200001,978.900024,106022
-126.75,29.25,982.800049,106026
-128.699997,31.200001,978.900024,106030
-136.5,35.100002,976.950012,106034
-128.699997,31.200001,982.800049,106038
-128.699997,31.200001,984.75,106042
-132.600006,35.100002,982.800049,106046
-128.699997,33.150002,982.800049,106050
-126.75,39,982.800049,106054
-124.800003,37.049999,976.950012,106058
-126.75,31.200001,978.900024,106062
-122.850006,25.35,982.800049,106066
-124.800003,31.200001,980.850037,106070
-124.800003,27.300001,980.850037,106074
-130.650009,33.150002,984.75,106078
-124.800003,33.150002,982.800049,106082
-130.650009,27.300001,975,106086
-130.650009,35.100002,982.800049,106090
-128.699997,33.150002,980.850037,106094
-130.650009,29.25,982.800049,106098
-126.75,33.150002,978.900024,106102
-130.650009,40.950001,982.800049,106106
-126.75,42.900002,980.850037,106110
-124.800003,39,976.950012,106114
-120.900002,31.200001,984.75,106118
-130.650009,31.200001,982.800049,106122
-122.850006,33.150002,988.650024,106126
-124.800003,27.300001,986.700012,106130
-124.800003,29.25,988.650024,106134
-130.650009,33.150002,978.900024,106138
-132.600006,37.049999,978.900024,106142
-130.650009,33.150002,976.950012,106146
-130.650009,29.25,975,106150
-126.75,33.150002,980.850037,106154
-126.75,33.150002,984.75,106158
-126.75,33.150002,982.800049,106162
-126.75,35.100002,976.950012,106166
-128.699997,37.049999,975,106170
-132.600006,37.049999,976.950012,106174
-124.800003,37.049999,975,106178
-130.650009,35.100002,975,106182
-126.75,29.25,976.950012,106186
-122.850006,27.300001,982.800049,106190
-126.75,31.200001,976.950012,106194
-122.850006,31.200001,982.800049,106198
-120.900002,33.150002,984.75,106202
-124.800003,33.150002,980.850037,106206
-126.75,31.200001,978.900024,106210
-128.699997,31.200001,984.75,106214
-130.650009,33.150002,982.800049,106218
-128.699997,37.049999,986.700012,106222
-128.699997,35.100002,986.700012,106226
-126.75,31.200001,986.700012,106230
-128.699997,33.150002,982.800049,106234
-124.800003,33.150002,980.850037,106238
-132.600006,31.200001,986.700012,106242
-130.650009,33.150002,980.850037,106246
-130.650009,33.150002,982.800049,106250
-126.75,31.200001,980.850037,106254
-126.75,33.150002,984.75,106258
-124.800003,29.25,978.900024,106262
-120.900002,33.150002,984.75,106266
-126.75,44.850002,980.850037,106270
-128.699997,39,976.950012,106274
-126.75,37.049999,982.800049,106278
-126.75,37.049999,976.950012,106282
-128.699997,35.100002,978.900024,106286
-128.699997,27.300001,980.850037,106290
-132.600006,31.200001,982.800049,106294
-126.75,35.100002,982.800049,106298
-126.75,37.049999,984.75,106302
-128.699997,33.150002,988.650024,106306
-130.650009,37.049999,986.700012,106310
-136.5,33.150002,980.850037,106314
-132.600006,33.150002,982.800049,106318
-128.699997,40.950001,980.850037,106322
-130.650009,31.200001,980.850037,106326
-128.699997,27.300001,980.850037,106330
-126.75,27.300001,984.75,106334
-122.850006,29.25,990.600037,106338
-124.800003,40.950001,986.700012,106342
-126.75,37.049999,982.800049,106346
-130.650009,33.150002,980.850037,106350
-130.650009,35.100002,982.800049,106354
-126.75,33.150002,980.850037,106358
-132.600006,33.150002,980.850037,106362
-130.650009,40.950001,986.700012,106366
-122.850006,35.100002,986.700012,106370
-117,33.150002,986.700012,106374
-126.75,37.049999,973.050049,106378
-128.699997,35.100002,980.850037,106382
-126.75,29.25,982.800049,106386
-128.699997,25.35,980.850037,106390
-126.75,31.200001,984.75,106394
-124.800003,31.200001,986.700012,106398
-128.699997,37.049999,980.850037,106402
-126.75,33.150002,980.850037,106406
-126.75,29.25,982.800049,106410
-128.699997,31.200001,982.800049,106414
-130.650009,33.150002,984.75,106418
-126.75,31.200001,982.800049,106422
-128.699997,31.200001,978.900024,106426
-130.650009,35.100002,980.850037,106430
-130.650009,40.950001,982.800049,106434
-126.75,40.950001,982.800049,106438
-126.75,33.150002,978.900024,106442
-126.75,35.100002,988.650024,106446
-124.800003,35.100002,982.800049,106450
-128.699997,37.049999,980.850037,106454
-130.650009,33.150002,976.950012,106458
-122.850006,29.25,986.700012,106462
-122.850006,31.200001,980.850037,106466
-124.800003,35.100002,980.850037,106470
-130.650009,35.100002,976.950012,106474
-128.699997,31.200001,976.950012,106478
-126.75,35.100002,980.850037,106482
-130.650009,35.100002,976.950012,106486
-126.75,35.100002,978.900024,106490
-128.699997,33.150002,982.800049,106494
-126.75,33.150002,982.800049,106498
-128.699997,33.150002,975,106502
-128.699997,33.150002,973.050049,106506
-136.5,29.25,980.850037,106510
-130.650009,27.300001,986.700012,106514
-122.850006,35.100002,976.950012,106518
-122.850006,31.200001,975,106522
-132.600006,29.25,978.900024,106526
-134.550003,35.100002,982.800049,106530
-132.600006,39,980.850037,106534
-130.650009,29.25,988.650024,106538
-126.75,31.200001,990.600037,106542
-128.699997,33.150002,984.75,106546
-126.75,31.200001,988.650024,106550
-128.699997,29.25,980.850037,106554
-130.650009,29.25,976.950012,106558
-122.850006,33.150002,975,106562
-124.800003,31.200001,982.800049,106566
-128.699997,31.200001,978.900024,106570
-122.850006,29.25,986.700012,106574
-126.75,37.049999,980.850037,106578
-126.75,39,982.800049,106582
-126.75,3.9,982.800049,106586
-128.699997,27.300001,984.75,106590
-134.550003,33.150002,984.75,106594
-128.699997,33.150002,982.800049,106598
-138.449997,37.049999,976.950012,106602
-132.600006,35.100002,978.900024,106606
-130.650009,35.100002,978.900024,106610
-130.650009,35.100002,978.900024,106614
-128.699997,25.35,982.800049,106618
-130.650009,33.150002,980.850037,106622
-124.800003,35.100002,978.900024,106626
-126.75,39,984.75,106630
-128.699997,35.100002,982.800049,106634
-128.699997,27.300001,986.700012,106638
-126.75,25.35,992.550049,106642
-122.850006,37.049999,986.700012,106646
-122.850006,31.200001,984.75,106650
-126.75,27.300001,978.900024,106654
-130.650009,29.25,978.900024,106658
-126.75,35.100002,982.800049,106662
-128.699997,39,982.800049,106666
-128.699997,33.150002,978.900024,106670
-130.650009,29.25,976.950012,106674
-128.699997,39,976.950012,106678
-128.699997,40.950001,982.800049,106682
-128.699997,37.049999,982.800049,106686
-126.75,37.049999,978.900024,106690
-122.850006,27.300001,976.950012,106694
-126.75,29.25,980.850037,106698
-126.75,35.100002,975,106702
-126.75,31.200001,978.900024,106706
-126.75,29.25,982.800049,106710
-128.699997,31.200001,975,106714
-126.75,33.150002,976.950012,106718
-120.900002,31.200001,976.950012,106722
-126.75,42.900002,976.950012,106726
-124.800003,31.200001,978.900024,106730
-128.699997,33.150002,980.850037,106734
-132.600006,33.150002,978.900024,106738
-132.600006,31.200001,978.900024,106742
-130.650009,31.200001,975,106746
-128.699997,27.300001,980.850037,106750
-126.75,31.200001,984.75,106754
-124.800003,29.25,984.75,106758
-138.449997,39,982.800049,106762
-128.699997,33.150002,980.850037,106766
-126.75,29.25,976.950012,106770
-124.800003,37.049999,980.850037,106774
-122.850006,29.25,978.900024,106778
-126.75,27.300001,980.850037,106782
-126.75,23.400002,978.900024,106786
-122.850006,29.25,978.900024,106790
-124.800003,35.100002,980.850037,106794
-128.699997,37.049999,982.800049,106798
-126.75,35.100002,982.800049,106802
-124.800003,35.100002,975,106806
-126.75,35.100002,980.850037,106810
-126.75,39,988.650024,106814
-128.699997,40.950001,988.650024,106818
-122.850006,35.100002,984.75,106822
-122.850006,33.150002,980.850037,106826
-128.699997,37.049999,982.800049,106830
-134.550003,37.049999,980.850037,106834
-132.600006,31.200001,980.850037,106838
-128.699997,33.150002,984.75,106842
-128.699997,35.100002,984.75,106846
-130.650009,27.300001,986.700012,106850
-130.650009,31.200001,982.800049,106854
-130.650009,29.25,984.75,106858
-120.900002,33.150002,982.800049,106862
-122.850006,33.150002,982.800049,106866
-124.800003,31.200001,975,106870
-124.800003,33.150002,976.950012,106874
-130.650009,31.200001,984.75,106878
-124.800003,31.200001,982.800049,106882
-132.600006,25.35,980.850037,106886
-134.550003,29.25,982.800049,106890
-134.550003,31.200001,978.900024,106894
-130.650009,31.200001,982.800049,106898
-128.699997,31.200001,978.900024,106902
-130.650009,27.300001,973.050049,106906
-132.600006,31.200001,978.900024,106910
-128.699997,31.200001,982.800049,106914
-130.650009,35.100002,978.900024,106918
-126.75,31.200001,980.850037,106922
-124.800003,37.049999,982.800049,106926
-128.699997,39,980.850037,106930
-126.75,29.25,982.800049,106934
-124.800003,35.100002,982.800049,106938
-122.850006,39,980.850037,106942
-124.800003,35.100002,980.850037,106946
-130.650009,33.150002,984.75,106950
-128.699997,31.200001,978.900024,106954
-128.699997,33.150002,980.850037,106958
-132.600006,35.100002,988.650024,106962
-132.600006,27.300001,980.850037,106966
-132.600006,27.300001,982.800049,106970
-136.5,21.450001,973.050049,106974
-134.550003,27.300001,978.900024,106978
-124.800003,23.400002,982.800049,106982
-126.75,27.300001,986.700012,106986
-124.800003,27.300001,980.850037,106990
-128.699997,31.200001,986.700012,106994
-130.650009,31.200001,980.850037,106998
-130.650009,33.150002,982.800049,107002
-128.699997,37.049999,982.800049,107006
-126.75,31.200001,982.800049,107010
-124.800003,35.100002,982.800049,107014
-130.650009,27.300001,980.850037,107018
-128.699997,31.200001,978.900024,107022
-132.600006,33.150002,978.900024,107026
-126.75,29.25,976.950012,107030
-124.800003,29.25,980.850037,107034
-120.900002,33.150002,988.650024,107038
-122.850006,27.300001,988.650024,107042
-126.75,33.150002,980.850037,107046
-128.699997,33.150002,990.600037,107050
-126.75,35.100002,982.800049,107054
-128.699997,29.25,980.850037,107058
-130.650009,29.25,978.900024,107062
-128.699997,35.100002,980.850037,107066
-128.699997,42.900002,980.850037,107070
-126.75,35.100002,984.75,107074
-128.699997,37.049999,986.700012,107078
-126.75,33.150002,980.850037,107082
-126.75,35.100002,982.800049,107086
-120.900002,39,984.75,107090
-124.800003,31.200001,986.700012,107094
-122.850006,33.150002,982.800049,107098
-124.800003,35.100002,980.850037,107102
-130.650009,31.200001,984.75,107106
-132.600006,27.300001,978.900024,107110
-134.550003,33.150002,980.850037,107114
-128.699997,35.100002,980.850037,107118
-128.699997,35.100002,976.950012,107122
-132.600006,35.100002,973.050049,107126
-130.650009,31.200001,984.75,107130
-130.650009,33.150002,982.800049,107134
-124.800003,31.200001,982.800049,107138
-128.699997,31.200001,980.850037,107142
-128.699997,29.25,978.900024,107146
-126.75,33.150002,975,107150
-126.75,37.049999,980.850037,107154
-128.699997,35.100002,984.75,107158
-128.699997,33.150002,982.800049,107162
-132.600006,33.150002,986.700012,107166
-128.699997,27.300001,975,107170
-128.699997,29.25,973.050049,107174
-124.800003,27.300001,976.950012,107178
-126.75,29.25,982.800049,107182
-122.850006,35.100002,982.800049,107186
-126.75,29.25,986.700012,107190
-126.75,33.150002,982.800049,107194
-126.75,0,982.800049,107198
-122.850006,37.049999,978.900024,107202
-124.800003,29.25,980.850037,107206
-128.699997,33.150002,982.800049,107210
-130.650009,40.950001,978.900024,107214
-126.75,37.049999,982.800049,107218
-134.550003,39,986.700012,107222
-128.699997,39,986.700012,107226
-130.650009,29.25,976.950012,107230
-126.75,33.150002,980.850037,107234
-124.800003,29.25,984.75,107238
-122.850006,25.35,982.800049,107242
-122.850006,29.25,980.850037,107246
-124.800003,37.049999,990.600037,107250
-124.800003,31.200001,984.75,107254
-132.600006,29.25,984.75,107258
-126.75,33.150002,980.850037,107262
-130.650009,33.150002,980.850037,107266
-126.75,35.100002,986.700012,107270
-128.699997,29.25,980.850037,107274
-126.75,31.200001,988.650024,107278
-126.75,29.25,984.75,107282
-126.75,29.25,978.900024,107286
-130.650009,33.150002,984.75,107290
-126.75,35.100002,978.900024,107294
-124.800003,35.100002,980.850037,107298
-130.650009,33.150002,984.75,107302
-128.699997,27.300001,986.700012,107306
-124.800003,31.200001,982.800049,107310
-124.800003,35.100002,975,107314
-128.699997,35.100002,976.950012,107318
-128.699997,33.150002,978.900024,107322
-128.699997,35.100002,973.050049,107326
-130.650009,31.200001,984.75,107330
-134.550003,39,986.700012,107334
-134.550003,35.100002,988.650024,107338
-126.75,35.100002,982.800049,107342
-124.800003,40.950001,980.850037,107346
-124.800003,37.049999,984.75,107350
-120.900002,39,984.75,107354
-128.699997,35.100002,982.800049,107358
-126.75,40.950001,982.800049,107362
-124.800003,39,978.900024,107366
-126.75,35.100002,980.850037,107370
-124.800003,37.049999,978.900024,107374
-124.800003,31.200001,980.850037,107378
-128.699997,31.200001,982.800049,107382
-130.650009,29.25,980.850037,107386
-130.650009,29.25,980.850037,107390
-130.650009,35.100002,982.800049,107394
-126.75,40.950001,986.700012,107398
-128.699997,37.049999,975,107402
-128.699997,31.200001,980.850037,107406
-126.75,31.200001,978.900024,107410
-120.900002,33.150002,984.75,107414
-132.600006,37.049999,982.800049,107418
-124.800003,33.150002,980.850037,107422
-124.800003,40.950001,980.850037,107426
-124.800003,33.150002,982.800049,107430
-130.650009,33.150002,978.900024,107434
-130.650009,35.100002,982.800049,107438
-126.75,33.150002,980.850037,107442
-124.800003,25.35,976.950012,107446
-124.800003,29.25,976.950012,107450
-128.699997,31.200001,980.850037,107454
-128.699997,37.049999,980.850037,107458
-130.650009,39,986.700012,107462
-128.699997,40.950001,980.850037,107466
-128.699997,37.049999,980.850037,107470
-124.800003,29.25,982.800049,107474
-126.75,33.150002,982.800049,107478
-124.800003,35.100002,988.650024,107482
-128.699997,29.25,982.800049,107486
-126.75,31.200001,986.700012,107490
-126.75,33.150002,978.900024,107494
-128.699997,33.150002,980.850037,107498
-124.800003,31.200001,984.75,107502
-124.800003,31.200001,988.650024,107506
-124.800003,35.100002,980.850037,107510
-126.75,31.200001,976.950012,107514
-132.600006,25.35,978.900024,107518
-124.800003,33.150002,982.800049,107522
-126.75,35.100002,978.900024,107526
-126.75,27.300001,976.950012,107530
-124.800003,29.25,980.850037,107534
-124.800003,27.300001,978.900024,107538
-128.699997,31.200001,976.950012,107542
-126.75,35.100002,978.900024,107546
-128.699997,31.200001,980.850037,107550
-130.650009,29.25,980.850037,107554
-122.850006,39,980.850037,107558
-120.900002,39,978.900024,107562
-122.850006,37.049999,971.100037,107566
-124.800003,29.25,971.100037,107570
-130.650009,35.100002,976.950012,107574
-122.850006,29.25,984.75,107578
-122.850006,35.100002,984.75,107582
-124.800003,33.150002,988.650024,107586
-126.75,33.150002,990.600037,107590
-132.600006,27.300001,988.650024,107594
-126.75,29.25,982.800049,107598
-132.600006,35.100002,980.850037,107602
-126.75,29.25,980.850037,107606
-126.75,33.150002,980.850037,107610
-130.650009,33.150002,986.700012,107614
-130.650009,37.049999,980.850037,107618
-130.650009,29.25,982.800049,107622
-126.75,27.300001,980.850037,107626
-126.75,33.150002,976.950012,107630
-126.75,37.049999,988.650024,107634
-124.800003,31.200001,980.850037,107638
-124.800003,31.200001,986.700012,107642
-128.699997,35.100002,984.75,107646
-128.699997,31.200001,978.900024,107650
-122.850006,33.150002,976.950012,107654
-128.699997,35.100002,973.050049,107658
-124.800003,35.100002,976.950012,107662
-122.850006,39,976.950012,107666
-124.800003,31.200001,980.850037,107670
-122.850006,31.200001,980.850037,107674
-124.800003,29.25,982.800049,107678
-126.75,37.049999,984.75,107682
-122.850006,31.200001,980.850037,107686
-122.850006,31.200001,982.800049,107690
-130.650009,31.200001,980.850037,107694
-128.699997,27.300001,984.75,107698
-136.5,27.300001,984.75,107702
-128.699997,33.150002,982.800049,107706
-130.650009,35.100002,986.700012,107710
-124.800003,31.200001,982.800049,107714
-120.900002,29.25,980.850037,107718
-124.800003,31.200001,988.650024,107722
-130.650009,29.25,984.75,107726
-130.650009,35.100002,978.900024,107730
-128.699997,29.25,980.850037,107734
-134.550003,37.049999,982.800049,107738
-134.550003,31.200001,978.900024,107742
-130.650009,37.049999,975,107746
-124.800003,33.150002,984.75,107750
-124.800003,35.100002,988.650024,107754
-126.75,33.150002,986.700012,107758
-130.650009,35.100002,980.850037,107762
-132.600006,31.200001,980.850037,107766
-128.699997,31.200001,976.950012,107770
-128.699997,29.25,984.75,107774
-130.650009,31.200001,990.600037,107778
-134.550003,35.100002,980.850037,107782
-124.800003,39,982.800049,107786
-128.699997,33.150002,978.900024,107790
-130.650009,37.049999,982.800049,107794
-128.699997,33.150002,980.850037,107798
-126.75,31.200001,984.75,107802
-128.699997,37.049999,984.75,107806
-126.75,33.150002,980.850037,107810
-124.800003,37.049999,976.950012,107814
-128.699997,33.150002,978.900024,107818
-130.650009,31.200001,978.900024,107822
-128.699997,33.150002,980.850037,107826
-132.600006,31.200001,982.800049,107830
-132.600006,37.049999,980.850037,107834
-132.600006,31.200001,986.700012,107838
-126.75,35.100002,988.650024,107842
-126.75,35.100002,984.75,107846
-128.699997,31.200001,984.75,107850
-128.699997,37.049999,984.75,107854
-126.75,37.049999,984.75,107858
-120.900002,35.100002,978.900024,107862
-120.900002,31.200001,982.800049,107866
-120.900002,35.100002,980.850037,107870
-124.800003,29.25,982.800049,107874
-130.650009,31.200001,980.850037,107878
-126.75,29.25,978.900024,107882
-122.850006,27.300001,978.900024,107886
-122.850006,33.150002,978.900024,107890
-128.699997,29.25,975,107894
-124.800003,29.25,984.75,107898
-126.75,39,978.900024,107902
-126.75,37.049999,984.75,107906
-126.75,37.049999,980.850037,107910
-132.600006,35.100002,982.800049,107914
-126.75,29.25,984.75,107918
-126.75,33.150002,986.700012,107922
-132.600006,29.25,980.850037,107926
-130.650009,35.100002,982.800049,107930
-130.650009,29.25,978.900024,107934
-128.699997,31.200001,978.900024,107938
-126.75,33.150002,978.900024,107942
-128.699997,35.100002,975,107946
-132.600006,31.200001,976.950012,107950
-128.699997,37.049999,980.850037,107954
-130.650009,33.150002,986.700012,107958
-124.800003,37.049999,980.850037,107962
-132.600006,35.100002,976.950012,107966
-132.600006,37.049999,980.850037,107970
-130.650009,29.25,982.800049,107974
-128.699997,25.35,980.850037,107978
-122.850006,33.150002,976.950012,107982
-126.75,29.25,984.75,107986
-126.75,29.25,982.800049,107990
-134.550003,31.200001,978.900024,107994
-128.699997,29.25,984.75,107998
-128.699997,33.150002,984.75,108002
-126.75,33.150002,984.75,108006
-126.75,37.049999,984.75,108010
-124.800003,39,975,108014
-126.75,33.150002,975,108018
-126.75,31.200001,982.800049,108022
-126.75,33.150002,978.900024,108026
-122.850006,35.100002,982.800049,108030
-115.050003,29.25,980.850037,108034
-117,33.150002,980.850037,108038
-128.699997,39,986.700012,108042
-132.600006,37.049999,988.650024,108046
-126.75,33.150002,976.950012,108050
-128.699997,31.200001,984.75,108054
-128.699997,31.200001,986.700012,108058
-130.650009,33.150002,984.75,108062
-132.600006,35.100002,975,108066
-132.600006,29.25,978.900024,108070
-132.600006,35.100002,988.650024,108074
-128.699997,25.35,988.650024,108078
-126.75,29.25,986.700012,108082
-124.800003,29.25,984.75,108086
-128.699997,33.150002,978.900024,108090
-134.550003,31.200001,984.75,108094
-132.600006,29.25,982.800049,108098
-130.650009,35.100002,978.900024,108102
-130.650009,35.100002,980.850037,108106
-126.75,33.150002,978.900024,108110
-130.650009,37.049999,978.900024,108114
-130.650009,27.300001,978.900024,108118
-122.850006,37.049999,975,108122
-122.850006,37.049999,973.050049,108126
-132.600006,31.200001,967.200012,108130
-128.699997,31.200001,976.950012,108134
-132.600006,25.35,973.050049,108138
-124.800003,33.150002,980.850037,108142
-122.850006,35.100002,980.850037,108146
-124.800003,35.100002,984.75,108150
-130.650009,31.200001,984.75,108154
-128.699997,29.25,980.850037,108158
-128.699997,31.200001,982.800049,108162
-128.699997,31.200001,980.850037,108166
-128.699997,25.35,982.800049,108170
-128.699997,29.25,990.600037,108174
-124.800003,31.200001,982.800049,108178
-128.699997,31.200001,982.800049,108182
-128.699997,37.049999,982.800049,108186
-126.75,39,982.800049,108190
-128.699997,40.950001,980.850037,108194
-128.699997,37.049999,982.800049,108198
-132.600006,33.150002,978.900024,108202
-126.75,31.200001,978.900024,108206
-126.75,33.150002,978.900024,108210
-128.699997,33.150002,978.900024,108214
-130.650009,29.25,978.900024,108218
-126.75,31.200001,975,108222
-126.75,35.100002,975,108226
-126.75,37.049999,982.800049,108230
-130.650009,35.100002,973.050049,108234
-126.75,31.200001,978.900024,108238
-126.75,35.100002,973.050049,108242
-130.650009,33.150002,975,108246
-126.75,39,976.950012,108250
-128.699997,37.049999,980.850037,108254
-126.75,35.100002,982.800049,108258
-122.850006,31.200001,988.650024,108262
-124.800003,35.100002,988.650024,108266
-128.699997,31.200001,982.800049,108270
-122.850006,37.049999,976.950012,108274
-124.800003,29.25,980.850037,108278
-122.850006,29.25,980.850037,108282
-124.800003,33.150002,982.800049,108286
-128.699997,29.25,984.75,108290
-128.699997,35.100002,986.700012,108294
-124.800003,33.150002,980.850037,108298
-128.699997,37.049999,982.800049,108302
-128.699997,39,982.800049,108306
-120.900002,37.049999,975,108310
-126.75,35.100002,984.75,108314
-124.800003,27.300001,986.700012,108318
-130.650009,31.200001,980.850037,108322
-126.75,35.100002,988.650024,108326
-122.850006,33.150002,988.650024,108330
-124.800003,39,980.850037,108334
-130.650009,40.950001,986.700012,108338
-128.699997,39,984.75,108342
-128.699997,39,986.700012,108346
-126.75,35.100002,984.75,108350
-124.800003,40.950001,973.050049,108354
-128.699997,35.100002,980.850037,108358
-126.75,39,988.650024,108362
-124.800003,33.150002,984.75,108366
-126.75,31.200001,984.75,108370
-130.650009,29.25,984.75,108374
-132.600006,35.100002,980.850037,108378
-134.550003,31.200001,978.900024,108382
-130.650009,33.150002,980.850037,108386
-122.850006,33.150002,978.900024,108390
-124.800003,33.150002,980.850037,108394
-128.699997,33.150002,988.650024,108398
-132.600006,31.200001,982.800049,108402
-124.800003,23.400002,980.850037,108406
-126.75,29.25,986.700012,108410
-126.75,35.100002,980.850037,108414
-124.800003,29.25,978.900024,108418
-130.650009,35.100002,980.850037,108422
-126.75,37.049999,978.900024,108426
-126.75,27.300001,980.850037,108430
-122.850006,31.200001,988.650024,108434
-126.75,31.200001,978.900024,108438
-126.75,37.049999,984.75,108442
-124.800003,35.100002,978.900024,108446
-126.75,37.049999,973.050049,108450
-132.600006,35.100002,976.950012,108454
-126.75,29.25,978.900024,108458
-128.699997,29.25,976.950012,108462
-126.75,29.25,980.850037,108466
-128.699997,33.150002,978.900024,108470
-128.699997,35.100002,982.800049,108474
-126.75,31.200001,986.700012,108478
-128.699997,29.25,984.75,108482
-132.600006,37.049999,984.75,108486
-128.699997,29.25,982.800049,108490
-132.600006,31.200001,988.650024,108494
-128.699997,33.150002,992.550049,108498
-130.650009,33.150002,986.700012,108502
-130.650009,33.150002,982.800049,108506
-126.75,31.200001,980.850037,108510
-130.650009,37.049999,978.900024,108514
-128.699997,40.950001,978.900024,108518
-130.650009,35.100002,990.600037,108522
-126.75,33.150002,980.850037,108526
-126.75,27.300001,978.900024,108530
-126.75,60.450001,984.75,108534
-136.5,31.200001,982.800049,108538
-128.699997,29.25,980.850037,108542
-126.75,35.100002,982.800049,108546
-128.699997,29.25,976.950012,108550
-130.650009,33.150002,978.900024,108554
-126.75,33.150002,975,108558
-124.800003,31.200001,978.900024,108562
-124.800003,33.150002,978.900024,108566
-132.600006,42.900002,976.950012,108570
-134.550003,39,975,108574
-128.699997,29.25,978.900024,108578
-126.75,29.25,984.75,108582
-126.75,27.300001,982.800049,108586
-126.75,31.200001,988.650024,108590
-126.75,31.200001,984.75,108594
-128.699997,35.100002,980.850037,108598
-126.75,33.150002,984.75,108602
-122.850006,39,982.800049,108606
-122.850006,37.049999,978.900024,108610
-124.800003,35.100002,980.850037,108614
-122.850006,29.25,980.850037,108618
-130.650009,31.200001,980.850037,108622
-124.800003,25.35,975,108626
-130.650009,33.150002,980.850037,108630
-128.699997,31.200001,982.800049,108634
-134.550003,27.300001,976.950012,108638
-124.800003,31.200001,990.600037,108642
-130.650009,27.300001,988.650024,108646
-132.600006,27.300001,978.900024,108650
-128.699997,35.100002,980.850037,108654
-126.75,33.150002,980.850037,108658
-128.699997,35.100002,988.650024,108662
-128.699997,29.25,982.800049,108666
-132.600006,31.200001,978.900024,108670
-130.650009,33.150002,978.900024,108674
-126.75,29.25,975,108678
-126.75,35.100002,984.75,108682
-124.800003,33.150002,978.900024,108686
-130.650009,31.200001,976.950012,108690
-130.650009,35.100002,976.950012,108694
-128.699997,37.049999,984.75,108698
-132.600006,35.100002,984.75,108702
