accelX,accelY,accelZ,timestamp
-117.200005,70.32,949.320007,633145
-117.200005,58.600002,937.600037,633149
-105.480003,70.32,937.600037,633153
-105.480003,70.32,949.320007,633157
-117.200005,70.32,972.76001,633161
-105.480003,58.600002,961.040039,633165
-105.480003,82.040001,949.320007,633169
-93.760002,70.32,972.76001,633173
-105.480003,70.32,961.040039,633177
-105.480003,82.040001,972.76001,633181
-128.919998,58.600002,961.040039,633185
-128.919998,70.32,961.040039,633189
-117.200005,35.16,949.320007,633193
-117.200005,82.040001,961.040039,633197
-117.200005,93.760002,972.76001,633201
-128.919998,82.040001,961.040039,633205
-117.200005,82.040001,949.320007,633209
-117.200005,70.32,949.320007,633213
-93.760002,82.040001,961.040039,633217
-105.480003,70.32,972.76001,633221
-128.919998,58.600002,949.320007,633225
-128.919998,93.760002,972.76001,633229
-105.480003,82.040001,972.76001,633233
-128.919998,93.760002,961.040039,633237
-105.480003,58.600002,949.320007,633241
-128.919998,82.040001,949.320007,633245
-117.200005,70.32,949.320007,633249
-128.919998,82.040001,925.880005,633253
-117.200005,58.600002,949.320007,633257
-117.200005,70.32,961.040039,633261
-93.760002,82.040001,961.040039,633265
-105.480003,82.040001,949.320007,633269
-105.480003,70.32,961.040039,633273
-105.480003,58.600002,949.320007,633277
-93.760002,58.600002,961.040039,633281
-93.760002,82.040001,937.600037,633285
-93.760002,58.600002,937.600037,633289
-105.480003,82.040001,949.320007,633293
-93.760002,82.040001,961.040039,633297
-117.200005,93.760002,949.320007,633301
-128.919998,82.040001,949.320007,633305
-128.919998,82.040001,961.040039,633309
-105.480003,58.600002,961.040039,633313
-105.480003,70.32,949.320007,633317
-140.639999,82.040001,937.600037,633321
-140.639999,93.760002,937.600037,633325
-105.480003,46.880001,949.320007,633329
-105.480003,58.600002,961.040039,633333
-117.200005,58.600002,949.320007,633337
-140.639999,93.760002,961.040039,633341
-128.919998,93.760002,961.040039,633345
-105.480003,105.480003,972.76001,633349
-105.480003,82.040001,961.040039,633353
-105.480003,70.32,937.600037,633357
-117.200005,58.600002,937.600037,633361
-93.760002,82.040001,961.040039,633365
-117.200005,46.880001,949.320007,633369
-105.480003,58.600002,949.320007,633373
-117.200005,46.880001,949.320007,633377
-105.480003,93.760002,961.040039,633381
-117.200005,58.600002,949.320007,633385
-117.200005,70.32,961.040039,633389
-105.480003,93.760002,961.040039,633393
-117.200005,93.760002,949.320007,633397
-128.919998,93.760002,972.76001,633401
-117.200005,82.040001,961.040039,633405
-117.200005,82.040001,949.320007,633409
-128.919998,93.760002,961.040039,633413
-117.200005,105.480003,961.040039,633417
-140.639999,93.760002,961.040039,633421
-140.639999,82.040001,961.040039,633425
-128.919998,82.040001,949.320007,633429
-105.480003,70.32,961.040039,633433
-117.200005,58.600002,949.320007,633437
-105.480003,58.600002,949.320007,633441
-93.760002,70.32,937.600037,633445
-105.480003,58.600002,937.600037,633449
-117.200005,70.32,925.880005,633453
-117.200005,58.600002,949.320007,633457
-105.480003,82.040001,949.320007,633461
-117.200005,105.480003,949.320007,633465
-140.639999,105.480003,961.040039,633469
-128.919998,82.040001,961.040039,633473
-117.200005,70.32,949.320007,633477
-117.200005,82.040001,949.320007,633481
-117.200005,70.32,961.040039,633485
-117.200005,58.600002,984.480042,633489
-117.200005,70.32,961.040039,633493
-117.200005,70.32,961.040039,633497
-140.639999,82.040001,961.040039,633501
-140.639999,82.040001,961.040039,633505
-128.919998,70.32,961.040039,633509
-128.919998,82.040001,949.320007,633513
-117.200005,46.880001,961.040039,633517
-117.200005,58.600002,937.600037,633521
-105.480003,58.600002,961.040039,633525
-117.200005,70.32,972.76001,633529
-117.200005,82.040001,972.76001,633533
-117.200005,93.760002,961.040039,633537
-128.919998,58.600002,961.040039,633541
-140.639999,70.32,972.76001,633545
-117.200005,82.040001,961.040039,633549
-128.919998,58.600002,972.76001,633553
-105.480003,46.880001,961.040039,633557
-117.200005,46.880001,937.600037,633561
-117.200005,46.880001,937.600037,633565
-105.480003,82.040001,937.600037,633569
-117.200005,82.040001,961.040039,633573
-117.200005,105.480003,949.320007,633577
-105.480003,82.040001,937.600037,633581
-105.480003,93.760002,949.320007,633585
-117.200005,82.040001,984.480042,633589
-128.919998,93.760002,961.040039,633593
-128.919998,82.040001,949.320007,633597
-117.200005,82.040001,961.040039,633601
-128.919998,70.32,961.040039,633605
-117.200005,70.32,937.600037,633609
-128.919998,58.600002,925.880005,633613
-105.480003,82.040001,961.040039,633617
-105.480003,70.32,961.040039,633621
-128.919998,105.480003,949.320007,633625
-117.200005,105.480003,949.320007,633629
-117.200005,82.040001,961.040039,633633
-117.200005,93.760002,949.320007,633637
-117.200005,70.32,961.040039,633641
-105.480003,93.760002,949.320007,633645
-117.200005,82.040001,961.040039,633649
-93.760002,93.760002,961.040039,633653
-117.200005,70.32,949.320007,633657
-128.919998,82.040001,949.320007,633661
-105.480003,105.480003,949.320007,633665
-105.480003,93.760002,972.76001,633669
-117.200005,70.32,949.320007,633673
-140.639999,70.32,961.040039,633677
-140.639999,70.32,961.040039,633681
-128.919998,93.760002,972.76001,633685
-152.360001,82.040001,972.76001,633689
-128.919998,70.32,949.320007,633693
-105.480003,70.32,937.600037,633697
-93.760002,82.040001,937.600037,633701
-93.760002,70.32,925.880005,633705
-117.200005,70.32,949.320007,633709
-128.919998,82.040001,961.040039,633713
-117.200005,93.760002,949.320007,633717
-128.919998,93.760002,937.600037,633721
-117.200005,93.760002,949.320007,633725
-117.200005,58.600002,961.040039,633729
-128.919998,82.040001,937.600037,633733
-128.919998,70.32,961.040039,633737
-117.200005,93.760002,937.600037,633741
-128.919998,58.600002,914.160034,633745
-117.200005,70.32,925.880005,633749
-128.919998,70.32,949.320007,633753
-117.200005,93.760002,972.76001,633757
-117.200005,82.040001,961.040039,633761
-117.200005,70.32,937.600037,633765
-117.200005,82.040001,949.320007,633769
-117.200005,82.040001,961.040039,633773
-128.919998,93.760002,961.040039,633777
-128.919998,70.32,972.76001,633781
-117.200005,82.040001,984.480042,633785
-117.200005,82.040001,961.040039,633789
-140.639999,70.32,949.320007,633793
-140.639999,70.32,949.320007,633797
-117.200005,58.600002,949.320007,633801
-140.639999,70.32,972.76001,633805
-140.639999,93.760002,972.76001,633809
-128.919998,105.480003,949.320007,633813
-128.919998,117.200005,961.040039,633817
-117.200005,70.32,961.040039,633821
-105.480003,46.880001,937.600037,633825
-105.480003,70.32,937.600037,633829
-93.760002,70.32,949.320007,633833
-117.200005,82.040001,949.320007,633837
-105.480003,70.32,949.320007,633841
-105.480003,58.600002,961.040039,633845
-117.200005,93.760002,949.320007,633849
-117.200005,82.040001,949.320007,633853
-128.919998,58.600002,949.320007,633857
-117.200005,70.32,961.040039,633861
-117.200005,82.040001,949.320007,633865
-128.919998,93.760002,972.76001,633869
-128.919998,70.32,972.76001,633873
-93.760002,82.040001,937.600037,633877
-93.760002,82.040001,949.320007,633881
-105.480003,70.32,949.320007,633885
-93.760002,93.760002,949.320007,633889
-117.200005,58.600002,961.040039,633893
-128.919998,58.600002,949.320007,633897
-117.200005,70.32,961.040039,633901
-140.639999,70.32,961.040039,633905
-128.919998,82.040001,961.040039,633909
-105.480003,82.040001,972.76001,633913
-105.480003,82.040001,961.040039,633917
-140.639999,82.040001,961.040039,633921
-128.919998,93.760002,937.600037,633925
-117.200005,58.600002,937.600037,633929
-140.639999,70.32,961.040039,633933
-117.200005,46.880001,961.040039,633937
-117.200005,82.040001,961.040039,633941
-117.200005,82.040001,961.040039,633945
-128.919998,82.040001,961.040039,633949
-117.200005,82.040001,949.320007,633953
-117.200005,82.040001,972.76001,633957
-117.200005,82.040001,961.040039,633961
-128.919998,70.32,949.320007,633965
-117.200005,58.600002,949.320007,633969
-140.639999,58.600002,961.040039,633973
-128.919998,58.600002,961.040039,633977
-128.919998,93.760002,949.320007,633981
-105.480003,82.040001,949.320007,633985
-117.200005,82.040001,937.600037,633989
-128.919998,58.600002,937.600037,633993
-105.480003,93.760002,961.040039,633997
-105.480003,70.32,972.76001,634001
-93.760002,82.040001,949.320007,634005
-117.200005,82.040001,961.040039,634009
-117.200005,82.040001,949.320007,634013
-117.200005,93.760002,925.880005,634017
-128.919998,82.040001,937.600037,634021
-128.919998,70.32,961.040039,634025
-128.919998,46.880001,949.320007,634029
-152.360001,58.600002,961.040039,634033
-128.919998,70.32,949.320007,634037
-128.919998,70.32,961.040039,634041
-117.200005,58.600002,961.040039,634045
-128.919998,35.16,972.76001,634049
-140.639999,58.600002,961.040039,634053
-152.360001,82.040001,949.320007,634057
-117.200005,82.040001,972.76001,634061
-117.200005,105.480003,949.320007,634065
-140.639999,93.760002,961.040039,634069
-140.639999,58.600002,949.320007,634073
-140.639999,70.32,949.320007,634077
-117.200005,58.600002,961.040039,634081
-105.480003,93.760002,949.320007,634085
-117.200005,93.760002,949.320007,634089
-128.919998,93.760002,961.040039,634093
-128.919998,70.32,949.320007,634097
-105.480003,93.760002,949.320007,634101
-128.919998,82.040001,937.600037,634105
-105.480003,70.32,949.320007,634109
-117.200005,82.040001,949.320007,634113
-140.639999,82.040001,937.600037,634117
-128.919998,70.32,949.320007,634121
-105.480003,82.040001,961.040039,634125
-105.480003,82.040001,949.320007,634129
-105.480003,58.600002,949.320007,634133
-117.200005,58.600002,949.320007,634137
-105.480003,82.040001,949.320007,634141
-128.919998,105.480003,961.040039,634145
-105.480003,93.760002,961.040039,634149
-117.200005,82.040001,961.040039,634153
-117.200005,105.480003,949.320007,634157
-128.919998,93.760002,949.320007,634161
-117.200005,93.760002,972.76001,634165
-128.919998,82.040001,972.76001,634169
-105.480003,70.32,949.320007,634173
-105.480003,46.880001,949.320007,634177
-105.480003,58.600002,961.040039,634181
-117.200005,82.040001,961.040039,634185
-128.919998,82.040001,949.320007,634189
-105.480003,82.040001,949.320007,634193
-93.760002,58.600002,949.320007,634197
-105.480003,70.32,949.320007,634201
-93.760002,70.32,961.040039,634205
-105.480003,70.32,961.040039,634209
-105.480003,82.040001,972.76001,634213
-105.480003,93.760002,972.76001,634217
-105.480003,82.040001,949.320007,634221
-117.200005,70.32,949.320007,634225
-117.200005,46.880001,961.040039,634229
-128.919998,82.040001,937.600037,634233
-117.200005,70.32,937.600037,634237
-105.480003,70.32,984.480042,634241
-105.480003,70.32,961.040039,634245
-117.200005,70.32,961.040039,634249
-105.480003,70.32,961.040039,634253
-117.200005,82.040001,949.320007,634257
-117.200005,93.760002,961.040039,634261
-117.200005,70.32,972.76001,634265
-105.480003,82.040001,961.040039,634269
-105.480003,82.040001,937.600037,634273
-117.200005,82.040001,949.320007,634277
-117.200005,58.600002,972.76001,634281
-128.919998,82.040001,972.76001,634285
-117.200005,93.760002,984.480042,634289
-105.480003,82.040001,949.320007,634293
-117.200005,93.760002,949.320007,634297
-128.919998,58.600002,949.320007,634301
-128.919998,46.880001,961.040039,634305
-117.200005,46.880001,949.320007,634309
-128.919998,58.600002,961.040039,634313
-117.200005,93.760002,961.040039,634317
-128.919998,82.040001,937.600037,634321
-117.200005,105.480003,949.320007,634325
-105.480003,93.760002,937.600037,634329
-128.919998,82.040001,949.320007,634333
-117.200005,70.32,949.320007,634337
-117.200005,58.600002,949.320007,634341
-117.200005,70.32,949.320007,634345
-93.760002,46.880001,961.040039,634349
-117.200005,46.880001,949.320007,634353
-117.200005,82.040001,949.320007,634357
-128.919998,82.040001,949.320007,634361
-128.919998,70.32,949.320007,634365
-140.639999,82.040001,961.040039,634369
-140.639999,93.760002,961.040039,634373
-140.639999,58.600002,949.320007,634377
-140.639999,82.040001,961.040039,634381
-128.919998,82.040001,984.480042,634385
-128.919998,70.32,972.76001,634389
-117.200005,46.880001,972.76001,634393
-105.480003,70.32,949.320007,634397
-105.480003,70.32,949.320007,634401
-105.480003,82.040001,949.320007,634405
-105.480003,93.760002,949.320007,634409
-117.200005,58.600002,961.040039,634413
-105.480003,82.040001,937.600037,634417
-105.480003,82.040001,937.600037,634421
-105.480003,70.32,949.320007,634425
-105.480003,93.760002,984.480042,634429
-140.639999,105.480003,949.320007,634433
-128.919998,105.480003,961.040039,634437
-128.919998,70.32,949.320007,634441
-105.480003,58.600002,972.76001,634445
-105.480003,58.600002,961.040039,634449
-128.919998,82.040001,949.320007,634453
-117.200005,82.040001,961.040039,634457
-117.200005,58.600002,961.040039,634461
-105.480003,58.600002,949.320007,634465
-117.200005,58.600002,949.320007,634469
-117.200005,58.600002,937.600037,634473
-105.480003,70.32,937.600037,634477
-105.480003,70.32,925.880005,634481
-93.760002,58.600002,937.600037,634485
-117.200005,70.32,937.600037,634489
-128.919998,46.880001,937.600037,634493
-128.919998,70.32,937.600037,634497
-117.200005,82.040001,961.040039,634501
-117.200005,58.600002,972.76001,634505
-105.480003,82.040001,961.040039,634509
-117.200005,82.040001,961.040039,634513
-117.200005,70.32,949.320007,634517
-105.480003,82.040001,937.600037,634521
-93.760002,93.760002,949.320007,634525
-105.480003,93.760002,937.600037,634529
-105.480003,70.32,949.320007,634533
-117.200005,58.600002,949.320007,634537
-117.200005,70.32,961.040039,634541
-117.200005,46.880001,961.040039,634545
-117.200005,46.880001,949.320007,634549
-117.200005,70.32,949.320007,634553
-117.200005,82.040001,961.040039,634557
-117.200005,82.040001,949.320007,634561
-117.200005,93.760002,949.320007,634565
-128.919998,82.040001,949.320007,634569
-128.919998,82.040001,949.320007,634573
-128.919998,70.32,949.320007,634577
-105.480003,70.32,949.320007,634581
-105.480003,70.32,949.320007,634585
-128.919998,82.040001,949.320007,634589
-105.480003,105.480003,972.76001,634593
-93.760002,93.760002,972.76001,634597
-117.200005,93.760002,961.040039,634601
-117.200005,58.600002,961.040039,634605
-128.919998,70.32,972.76001,634609
-128.919998,70.32,961.040039,634613
-105.480003,82.040001,972.76001,634617
-93.760002,105.480003,961.040039,634621
-105.480003,93.760002,937.600037,634625
-93.760002,70.32,949.320007,634629
-105.480003,70.32,949.320007,634633
-105.480003,70.32,949.320007,634637
-93.760002,58.600002,972.76001,634641
-105.480003,82.040001,949.320007,634645
-128.919998,105.480003,961.040039,634649
-128.919998,70.32,961.040039,634653
-105.480003,105.480003,949.320007,634657
-117.200005,105.480003,984.480042,634661
-117.200005,93.760002,961.040039,634665
-128.919998,93.760002,949.320007,634669
-140.639999,82.040001,984.480042,634673
-117.200005,82.040001,949.320007,634677
-117.200005,70.32,949.320007,634681
-128.919998,93.760002,972.76001,634685
-128.919998,93.760002,961.040039,634689
-117.200005,58.600002,949.320007,634693
-117.200005,70.32,949.320007,634697
-128.919998,70.32,961.040039,634701
-140.639999,58.600002,961.040039,634705
-128.919998,46.880001,949.320007,634709
-117.200005,70.32,961.040039,634713
-128.919998,58.600002,961.040039,634717
-105.480003,58.600002,949.320007,634721
-105.480003,70.32,961.040039,634725
-105.480003,82.040001,949.320007,634729
-105.480003,82.040001,961.040039,634733
-105.480003,70.32,949.320007,634737
-105.480003,58.600002,961.040039,634741
-105.480003,35.16,972.76001,634745
-105.480003,70.32,949.320007,634749
-105.480003,70.32,949.320007,634753
-117.200005,82.040001,961.040039,634757
-117.200005,93.760002,961.040039,634761
-140.639999,70.32,949.320007,634765
-128.919998,70.32,972.76001,634769
-105.480003,46.880001,961.040039,634773
-117.200005,105.480003,961.040039,634777
-105.480003,93.760002,949.320007,634781
-128.919998,82.040001,949.320007,634785
-128.919998,105.480003,961.040039,634789
-128.919998,117.200005,949.320007,634793
-105.480003,93.760002,949.320007,634797
-117.200005,93.760002,961.040039,634801
-128.919998,82.040001,949.320007,634805
-117.200005,70.32,961.040039,634809
-128.919998,70.32,937.600037,634813
-117.200005,70.32,937.600037,634817
-117.200005,70.32,937.600037,634821
-128.919998,46.880001,972.76001,634825
-128.919998,46.880001,972.76001,634829
-93.760002,82.040001,949.320007,634833
-117.200005,82.040001,949.320007,634837
-105.480003,58.600002,937.600037,634841
-93.760002,70.32,949.320007,634845
-117.200005,82.040001,949.320007,634849
-105.480003,70.32,961.040039,634853
-105.480003,82.040001,949.320007,634857
-128.919998,93.760002,972.76001,634861
-105.480003,93.760002,972.76001,634865
-128.919998,70.32,949.320007,634869
-117.200005,82.040001,949.320007,634873
-140.639999,82.040001,949.320007,634877
-140.639999,46.880001,949.320007,634881
-128.919998,46.880001,949.320007,634885
-140.639999,105.480003,961.040039,634889
-128.919998,93.760002,972.76001,634893
-105.480003,93.760002,949.320007,634897
-117.200005,93.760002,949.320007,634901
-93.760002,117.200005,949.320007,634905
-105.480003,58.600002,972.76001,634909
-105.480003,46.880001,961.040039,634913
-117.200005,58.600002,949.320007,634917
-117.200005,58.600002,949.320007,634921
-140.639999,46.880001,961.040039,634925
-128.919998,35.16,961.040039,634929
-105.480003,70.32,949.320007,634933
-117.200005,82.040001,949.320007,634937
-128.919998,70.32,972.76001,634941
-128.919998,82.040001,949.320007,634945
-117.200005,105.480003,972.76001,634949
-105.480003,105.480003,961.040039,634953
-117.200005,105.480003,949.320007,634957
-117.200005,93.760002,949.320007,634961
-117.200005,70.32,961.040039,634965
-117.200005,82.040001,961.040039,634969
-117.200005,70.32,972.76001,634973
-117.200005,70.32,984.480042,634977
-93.760002,70.32,972.76001,634981
-105.480003,70.32,972.76001,634985
-93.760002,93.760002,961.040039,634989
-105.480003,93.760002,949.320007,634993
-105.480003,93.760002,949.320007,634997
-117.200005,70.32,949.320007,635001
-117.200005,82.040001,949.320007,635005
-117.200005,70.32,961.040039,635009
-117.200005,93.760002,949.320007,635013
-128.919998,82.040001,972.76001,635017
-105.480003,70.32,961.040039,635021
-93.760002,58.600002,972.76001,635025
-105.480003,93.760002,961.040039,635029
-128.919998,70.32,961.040039,635033
-105.480003,58.600002,949.320007,635037
-105.480003,46.880001,949.320007,635041
-105.480003,46.880001,925.880005,635045
-117.200005,35.16,961.040039,635049
-105.480003,58.600002,949.320007,635053
-105.480003,82.040001,937.600037,635057
-117.200005,82.040001,949.320007,635061
-117.200005,46.880001,961.040039,635065
-105.480003,58.600002,961.040039,635069
-117.200005,58.600002,961.040039,635073
-117.200005,70.32,961.040039,635077
-128.919998,46.880001,961.040039,635081
-128.919998,23.440001,961.040039,635085
-105.480003,35.16,961.040039,635089
-105.480003,46.880001,961.040039,635093
-105.480003,58.600002,961.040039,635097
-117.200005,70.32,949.320007,635101
-117.200005,58.600002,937.600037,635105
-105.480003,82.040001,961.040039,635109
-117.200005,70.32,949.320007,635113
-128.919998,82.040001,949.320007,635117
-117.200005,58.600002,949.320007,635121
-117.200005,70.32,961.040039,635125
-140.639999,58.600002,961.040039,635129
-128.919998,46.880001,961.040039,635133
-105.480003,58.600002,949.320007,635137
-105.480003,70.32,949.320007,635141
-117.200005,70.32,961.040039,635145
-105.480003,82.040001,949.320007,635149
-117.200005,93.760002,949.320007,635153
-117.200005,70.32,949.320007,635157
-117.200005,105.480003,949.320007,635161
-140.639999,82.040001,949.320007,635165
-128.919998,82.040001,937.600037,635169
-128.919998,82.040001,937.600037,635173
-105.480003,93.760002,937.600037,635177
-105.480003,70.32,937.600037,635181
-93.760002,70.32,949.320007,635185
-93.760002,82.040001,937.600037,635189
-128.919998,82.040001,961.040039,635193
-105.480003,82.040001,949.320007,635197
-93.760002,70.32,972.76001,635201
-105.480003,58.600002,972.76001,635205
-117.200005,58.600002,961.040039,635209
-105.480003,82.040001,949.320007,635213
-128.919998,82.040001,961.040039,635217
-117.200005,105.480003,949.320007,635221
-117.200005,105.480003,949.320007,635225
-128.919998,82.040001,949.320007,635229
-117.200005,117.200005,937.600037,635233
-117.200005,93.760002,937.600037,635237
-117.200005,70.32,949.320007,635241
-140.639999,70.32,961.040039,635245
-140.639999,70.32,937.600037,635249
-117.200005,70.32,961.040039,635253
-128.919998,93.760002,961.040039,635257
-105.480003,105.480003,961.040039,635261
-93.760002,117.200005,949.320007,635265
-117.200005,70.32,972.76001,635269
-105.480003,58.600002,961.040039,635273
-105.480003,82.040001,961.040039,635277
-105.480003,70.32,961.040039,635281
-105.480003,82.040001,949.320007,635285
-105.480003,82.040001,961.040039,635289
-105.480003,70.32,972.76001,635293
-117.200005,93.760002,961.040039,635297
-128.919998,70.32,949.320007,635301
-93.760002,82.040001,949.320007,635305
-117.200005,105.480003,961.040039,635309
-93.760002,58.600002,937.600037,635313
-93.760002,93.760002,949.320007,635317
-105.480003,58.600002,937.600037,635321
-128.919998,46.880001,937.600037,635325
-105.480003,58.600002,937.600037,635329
-105.480003,93.760002,949.320007,635333
-105.480003,93.760002,949.320007,635337
-117.200005,70.32,949.320007,635341
-117.200005,70.32,972.76001,635345
-117.200005,35.16,961.040039,635349
-105.480003,70.32,937.600037,635353
-140.639999,82.040001,949.320007,635357
-117.200005,93.760002,949.320007,635361
-105.480003,82.040001,972.76001,635365
-105.480003,82.040001,937.600037,635369
-105.480003,82.040001,949.320007,635373
-93.760002,70.32,949.320007,635377
-128.919998,82.040001,949.320007,635381
-128.919998,93.760002,949.320007,635385
-117.200005,82.040001,949.320007,635389
-117.200005,93.760002,961.040039,635393
-117.200005,70.32,949.320007,635397
-105.480003,70.32,949.320007,635401
-105.480003,58.600002,949.320007,635405
-93.760002,82.040001,961.040039,635409
-117.200005,82.040001,949.320007,635413
-117.200005,105.480003,949.320007,635417
-117.200005,93.760002,949.320007,635421
-128.919998,93.760002,961.040039,635425
-117.200005,70.32,972.76001,635429
-105.480003,58.600002,961.040039,635433
-117.200005,70.32,949.320007,635437
-117.200005,82.040001,961.040039,635441
-117.200005,105.480003,961.040039,635445
-128.919998,70.32,961.040039,635449
-93.760002,46.880001,949.320007,635453
-117.200005,58.600002,750.080017,635457
-117.200005,93.760002,937.600037,635461
-128.919998,46.880001,937.600037,635465
-128.919998,58.600002,949.320007,635469
-128.919998,46.880001,972.76001,635473
-128.919998,58.600002,972.76001,635477
-105.480003,46.880001,972.76001,635481
-105.480003,70.32,972.76001,635485
-105.480003,82.040001,949.320007,635489
-105.480003,58.600002,937.600037,635493
-117.200005,70.32,949.320007,635497
-105.480003,58.600002,961.040039,635501
-140.639999,46.880001,949.320007,635505
-117.200005,93.760002,961.040039,635509
-128.919998,82.040001,961.040039,635513
-117.200005,82.040001,984.480042,635517
-117.200005,58.600002,949.320007,635521
-140.639999,70.32,949.320007,635525
-117.200005,82.040001,949.320007,635529
-128.919998,117.200005,961.040039,635533
-117.200005,105.480003,961.040039,635537
-128.919998,105.480003,937.600037,635541
-117.200005,70.32,949.320007,635545
-140.639999,58.600002,949.320007,635549
-140.639999,70.32,949.320007,635553
-105.480003,82.040001,949.320007,635557
-117.200005,82.040001,961.040039,635561
-105.480003,93.760002,949.320007,635565
-117.200005,82.040001,949.320007,635569
-117.200005,105.480003,949.320007,635573
-128.919998,70.32,949.320007,635577
-117.200005,58.600002,937.600037,635581
-105.480003,82.040001,961.040039,635585
-105.480003,105.480003,949.320007,635589
-117.200005,105.480003,961.040039,635593
-117.200005,82.040001,937.600037,635597
-128.919998,105.480003,984.480042,635601
-117.200005,93.760002,972.76001,635605
-128.919998,82.040001,961.040039,635609
-117.200005,70.32,972.76001,635613
-105.480003,70.32,972.76001,635617
-117.200005,82.040001,949.320007,635621
-128.919998,82.040001,961.040039,635625
-105.480003,70.32,972.76001,635629
-117.200005,82.040001,984.480042,635633
-105.480003,82.040001,961.040039,635637
-117.200005,82.040001,972.76001,635641
-117.200005,105.480003,984.480042,635645
-93.760002,93.760002,961.040039,635649
-105.480003,70.32,949.320007,635653
-105.480003,58.600002,949.320007,635657
-117.200005,70.32,949.320007,635661
-117.200005,58.600002,961.040039,635665
-105.480003,70.32,949.320007,635669
-105.480003,35.16,972.76001,635673
-105.480003,35.16,972.76001,635677
-117.200005,58.600002,972.76001,635681
-128.919998,58.600002,949.320007,635685
-105.480003,70.32,949.320007,635689
-117.200005,70.32,961.040039,635693
-105.480003,58.600002,937.600037,635697
-128.919998,82.040001,937.600037,635701
-117.200005,46.880001,961.040039,635705
-117.200005,46.880001,949.320007,635709
-117.200005,82.040001,961.040039,635713
-117.200005,117.200005,972.76001,635717
-140.639999,93.760002,972.76001,635721
-140.639999,70.32,972.76001,635725
-128.919998,82.040001,972.76001,635729
-117.200005,58.600002,949.320007,635733
-128.919998,58.600002,972.76001,635737
-117.200005,82.040001,961.040039,635741
-117.200005,93.760002,961.040039,635745
-128.919998,58.600002,937.600037,635749
-140.639999,46.880001,949.320007,635753
-128.919998,93.760002,961.040039,635757
-117.200005,82.040001,961.040039,635761
-117.200005,82.040001,949.320007,635765
-128.919998,70.32,949.320007,635769
-105.480003,58.600002,949.320007,635773
-117.200005,58.600002,949.320007,635777
-117.200005,58.600002,949.320007,635781
-117.200005,58.600002,949.320007,635785
-105.480003,70.32,961.040039,635789
-128.919998,70.32,949.320007,635793
-128.919998,70.32,961.040039,635797
-117.200005,46.880001,972.76001,635801
-117.200005,82.040001,984.480042,635805
-105.480003,82.040001,949.320007,635809
-105.480003,93.760002,949.320007,635813
-117.200005,70.32,972.76001,635817
-105.480003,58.600002,972.76001,635821
-93.760002,58.600002,949.320007,635825
-105.480003,70.32,949.320007,635829
-93.760002,82.040001,949.320007,635833
-93.760002,70.32,937.600037,635837
-93.760002,82.040001,937.600037,635841
-105.480003,82.040001,937.600037,635845
-93.760002,105.480003,961.040039,635849
-117.200005,117.200005,949.320007,635853
-117.200005,82.040001,949.320007,635857
-117.200005,82.040001,961.040039,635861
-105.480003,117.200005,961.040039,635865
-105.480003,93.760002,949.320007,635869
-105.480003,93.760002,949.320007,635873
-117.200005,93.760002,949.320007,635877
-117.200005,46.880001,937.600037,635881
-117.200005,58.600002,937.600037,635885
-117.200005,82.040001,937.600037,635889
-128.919998,70.32,937.600037,635893
-128.919998,70.32,937.600037,635897
-128.919998,58.600002,925.880005,635901
-128.919998,58.600002,937.600037,635905
-140.639999,82.040001,961.040039,635909
-128.919998,93.760002,961.040039,635913
-105.480003,70.32,961.040039,635917
-105.480003,70.32,949.320007,635921
-117.200005,58.600002,961.040039,635925
-105.480003,46.880001,949.320007,635929
-93.760002,58.600002,961.040039,635933
-140.639999,82.040001,961.040039,635937
-140.639999,93.760002,961.040039,635941
-128.919998,82.040001,961.040039,635945
-105.480003,70.32,961.040039,635949
-117.200005,35.16,961.040039,635953
-105.480003,58.600002,949.320007,635957
-105.480003,70.32,949.320007,635961
-117.200005,70.32,949.320007,635965
-117.200005,58.600002,949.320007,635969
-105.480003,70.32,949.320007,635973
-117.200005,70.32,961.040039,635977
-117.200005,93.760002,961.040039,635981
-117.200005,117.200005,961.040039,635985
-140.639999,93.760002,949.320007,635989
-128.919998,58.600002,949.320007,635993
-117.200005,82.040001,949.320007,635997
-117.200005,70.32,961.040039,636001
-117.200005,46.880001,961.040039,636005
-105.480003,82.040001,937.600037,636009
-105.480003,70.32,949.320007,636013
-117.200005,70.32,949.320007,636017
-105.480003,70.32,984.480042,636021
-105.480003,70.32,984.480042,636025
-105.480003,35.16,949.320007,636029
-105.480003,46.880001,949.320007,636033
-105.480003,70.32,961.040039,636037
-105.480003,70.32,961.040039,636041
-105.480003,82.040001,961.040039,636045
-117.200005,117.200005,961.040039,636049
-128.919998,82.040001,949.320007,636053
-128.919998,82.040001,949.320007,636057
-140.639999,82.040001,949.320007,636061
-128.919998,46.880001,972.76001,636065
-105.480003,70.32,937.600037,636069
-105.480003,58.600002,972.76001,636073
-105.480003,82.040001,961.040039,636077
-117.200005,117.200005,949.320007,636081
-117.200005,82.040001,972.76001,636085
-105.480003,105.480003,961.040039,636089
-105.480003,82.040001,961.040039,636093
-128.919998,82.040001,949.320007,636097
-128.919998,82.040001,949.320007,636101
-128.919998,93.760002,961.040039,636105
-117.200005,93.760002,949.320007,636109
-128.919998,93.760002,961.040039,636113
-140.639999,105.480003,949.320007,636117
-152.360001,93.760002,961.040039,636121
-128.919998,70.32,949.320007,636125
-105.480003,82.040001,949.320007,636129
-105.480003,82.040001,949.320007,636133
-93.760002,82.040001,961.040039,636137
-117.200005,58.600002,961.040039,636141
-105.480003,82.040001,961.040039,636145
-105.480003,105.480003,972.76001,636149
-93.760002,82.040001,961.040039,636153
-93.760002,70.32,949.320007,636157
-105.480003,58.600002,949.320007,636161
-105.480003,70.32,949.320007,636165
-93.760002,58.600002,949.320007,636169
-105.480003,58.600002,937.600037,636173
-128.919998,58.600002,961.040039,636177
-105.480003,58.600002,949.320007,636181
-128.919998,58.600002,949.320007,636185
-128.919998,58.600002,949.320007,636189
-117.200005,70.32,949.320007,636193
-105.480003,82.040001,949.320007,636197
-93.760002,82.040001,949.320007,636201
-105.480003,93.760002,961.040039,636205
-117.200005,70.32,961.040039,636209
-128.919998,93.760002,961.040039,636213
-105.480003,105.480003,972.76001,636217
-105.480003,105.480003,984.480042,636221
-93.760002,82.040001,949.320007,636225
-105.480003,93.760002,961.040039,636229
-105.480003,93.760002,949.320007,636233
-93.760002,58.600002,961.040039,636237
-93.760002,70.32,961.040039,636241
-117.200005,35.16,949.320007,636245
-140.639999,46.880001,949.320007,636249
-140.639999,82.040001,961.040039,636253
-128.919998,93.760002,937.600037,636257
-128.919998,105.480003,937.600037,636261
-117.200005,70.32,937.600037,636265
-105.480003,93.760002,961.040039,636269
-128.919998,93.760002,949.320007,636273
-105.480003,58.600002,949.320007,636277
-117.200005,93.760002,949.320007,636281
-117.200005,70.32,961.040039,636285
-117.200005,105.480003,937.600037,636289
-117.200005,82.040001,961.040039,636293
-117.200005,82.040001,949.320007,636297
-128.919998,70.32,961.040039,636301
-128.919998,82.040001,961.040039,636305
-128.919998,70.32,949.320007,636309
-105.480003,93.760002,949.320007,636313
-117.200005,70.32,961.040039,636317
-117.200005,82.040001,949.320007,636321
-117.200005,93.760002,961.040039,636325
-128.919998,93.760002,925.880005,636329
-105.480003,70.32,937.600037,636333
-93.760002,58.600002,949.320007,636337
-128.919998,58.600002,961.040039,636341
-117.200005,70.32,949.320007,636345
-105.480003,82.040001,949.320007,636349
-140.639999,70.32,949.320007,636353
-128.919998,82.040001,949.320007,636357
-105.480003,70.32,961.040039,636361
-128.919998,70.32,949.320007,636365
-128.919998,46.880001,961.040039,636369
-128.919998,46.880001,949.320007,636373
-105.480003,82.040001,961.040039,636377
-105.480003,46.880001,949.320007,636381
-117.200005,35.16,949.320007,636385
-117.200005,58.600002,949.320007,636389
-105.480003,93.760002,961.040039,636393
-105.480003,58.600002,949.320007,636397
-117.200005,93.760002,949.320007,636401
-140.639999,105.480003,937.600037,636405
-117.200005,117.200005,961.040039,636409
-117.200005,58.600002,949.320007,636413
-105.480003,82.040001,961.040039,636417
-105.480003,93.760002,949.320007,636421
-105.480003,70.32,984.480042,636425
-117.200005,82.040001,949.320007,636429
-128.919998,93.760002,961.040039,636433
-117.200005,58.600002,949.320007,636437
-128.919998,70.32,961.040039,636441
-152.360001,58.600002,937.600037,636445
-128.919998,105.480003,949.320007,636449
-140.639999,70.32,949.320007,636453
-128.919998,70.32,972.76001,636457
-128.919998,70.32,961.040039,636461
-128.919998,70.32,961.040039,636465
-117.200005,70.32,949.320007,636469
-128.919998,58.600002,984.480042,636473
-117.200005,93.760002,961.040039,636477
-105.480003,70.32,949.320007,636481
-117.200005,82.040001,961.040039,636485
-140.639999,70.32,949.320007,636489
-117.200005,58.600002,949.320007,636493
-140.639999,58.600002,972.76001,636497
-140.639999,93.760002,961.040039,636501
-128.919998,82.040001,949.320007,636505
-117.200005,93.760002,949.320007,636509
-140.639999,58.600002,949.320007,636513
-152.360001,82.040001,961.040039,636517
-140.639999,70.32,972.76001,636521
-128.919998,70.32,961.040039,636525
-128.919998,58.600002,949.320007,636529
-140.639999,58.600002,984.480042,636533
-117.200005,70.32,961.040039,636537
-140.639999,58.600002,949.320007,636541
-140.639999,58.600002,949.320007,636545
-140.639999,82.040001,972.76001,636549
-140.639999,105.480003,972.76001,636553
-128.919998,105.480003,949.320007,636557
-117.200005,93.760002,972.76001,636561
-105.480003,105.480003,972.76001,636565
-128.919998,82.040001,972.76001,636569
-117.200005,93.760002,949.320007,636573
-105.480003,93.760002,937.600037,636577
-128.919998,70.32,949.320007,636581
-117.200005,70.32,937.600037,636585
-128.919998,93.760002,937.600037,636589
-128.919998,70.32,949.320007,636593
-117.200005,93.760002,949.320007,636597
-105.480003,82.040001,949.320007,636601
-93.760002,58.600002,949.320007,636605
-117.200005,70.32,961.040039,636609
-128.919998,46.880001,972.76001,636613
-128.919998,35.16,996.200012,636617
-105.480003,70.32,972.76001,636621
-93.760002,58.600002,949.320007,636625
-93.760002,46.880001,961.040039,636629
-93.760002,70.32,937.600037,636633
-105.480003,93.760002,949.320007,636637
-93.760002,70.32,972.76001,636641
-93.760002,58.600002,972.76001,636645
-93.760002,93.760002,949.320007,636649
-117.200005,58.600002,961.040039,636653
-128.919998,70.32,949.320007,636657
-117.200005,82.040001,949.320007,636661
-128.919998,82.040001,961.040039,636665
-140.639999,93.760002,961.040039,636669
-128.919998,93.760002,961.040039,636673
-117.200005,117.200005,961.040039,636677
-117.200005,70.32,949.320007,636681
-152.360001,70.32,972.76001,636685
-128.919998,82.040001,937.600037,636689
-117.200005,82.040001,937.600037,636693
-117.200005,58.600002,961.040039,636697
-128.919998,58.600002,949.320007,636701
-105.480003,58.600002,949.320007,636705
-117.200005,46.880001,949.320007,636709
-140.639999,23.440001,972.76001,636713
-105.480003,82.040001,949.320007,636717
-128.919998,93.760002,949.320007,636721
-128.919998,70.32,961.040039,636725
-128.919998,58.600002,949.320007,636729
-117.200005,82.040001,961.040039,636733
-93.760002,93.760002,949.320007,636737
-105.480003,93.760002,961.040039,636741
-105.480003,82.040001,949.320007,636745
-93.760002,93.760002,961.040039,636749
-117.200005,82.040001,949.320007,636753
-117.200005,82.040001,949.320007,636757
-117.200005,82.040001,972.76001,636761
-128.919998,93.760002,961.040039,636765
-152.360001,35.16,949.320007,636769
-128.919998,70.32,949.320007,636773
-117.200005,58.600002,937.600037,636777
-105.480003,82.040001,949.320007,636781
-128.919998,93.760002,961.040039,636785
-128.919998,58.600002,949.320007,636789
-105.480003,58.600002,949.320007,636793
-128.919998,82.040001,949.320007,636797
-93.760002,82.040001,937.600037,636801
-93.760002,82.040001,937.600037,636805
-140.639999,93.760002,937.600037,636809
-128.919998,82.040001,937.600037,636813
-105.480003,70.32,937.600037,636817
-93.760002,58.600002,949.320007,636821
-117.200005,105.480003,961.040039,636825
-128.919998,93.760002,949.320007,636829
-105.480003,82.040001,949.320007,636833
-82.040001,93.760002,961.040039,636837
-82.040001,93.760002,949.320007,636841
-117.200005,70.32,937.600037,636845
-140.639999,58.600002,949.320007,636849
-105.480003,82.040001,961.040039,636853
-105.480003,82.040001,972.76001,636857
-93.760002,46.880001,961.040039,636861
-128.919998,58.600002,972.76001,636865
-117.200005,58.600002,972.76001,636869
-117.200005,105.480003,949.320007,636873
-128.919998,82.040001,961.040039,636877
-117.200005,93.760002,961.040039,636881
-105.480003,82.040001,949.320007,636885
-117.200005,70.32,949.320007,636889
-128.919998,58.600002,961.040039,636893
-117.200005,70.32,961.040039,636897
-128.919998,58.600002,972.76001,636901
-117.200005,82.040001,961.040039,636905
-105.480003,70.32,949.320007,636909
-105.480003,82.040001,949.320007,636913
-117.200005,70.32,949.320007,636917
-128.919998,58.600002,937.600037,636921
-140.639999,58.600002,949.320007,636925
-152.360001,82.040001,949.320007,636929
-140.639999,105.480003,949.320007,636933
-117.200005,82.040001,949.320007,636937
-117.200005,105.480003,949.320007,636941
-117.200005,82.040001,949.320007,636945
-140.639999,93.760002,972.76001,636949
-128.919998,70.32,949.320007,636953
-117.200005,70.32,949.320007,636957
-117.200005,70.32,949.320007,636961
-117.200005,35.16,949.320007,636965
-140.639999,35.16,961.040039,636969
-128.919998,58.600002,961.040039,636973
-117.200005,35.16,972.76001,636977
-128.919998,46.880001,984.480042,636981
-117.200005,70.32,949.320007,636985
-128.919998,46.880001,949.320007,636989
-117.200005,46.880001,961.040039,636993
-117.200005,58.600002,750.080017,636997
-128.919998,82.040001,949.320007,637001
-117.200005,82.040001,949.320007,637005
-117.200005,105.480003,949.320007,637009
-128.919998,82.040001,937.600037,637013
-128.919998,82.040001,937.600037,637017
-117.200005,82.040001,949.320007,637021
-140.639999,70.32,949.320007,637025
-117.200005,82.040001,949.320007,637029
-105.480003,105.480003,949.320007,637033
-128.919998,82.040001,949.320007,637037
-105.480003,58.600002,949.320007,637041
-93.760002,82.040001,961.040039,637045
-117.200005,70.32,937.600037,637049
-128.919998,70.32,937.600037,637053
-105.480003,105.480003,961.040039,637057
-105.480003,82.040001,949.320007,637061
-117.200005,70.32,961.040039,637065
-128.919998,58.600002,949.320007,637069
-105.480003,46.880001,961.040039,637073
-117.200005,93.760002,949.320007,637077
-117.200005,82.040001,949.320007,637081
-117.200005,70.32,961.040039,637085
-117.200005,82.040001,961.040039,637089
-117.200005,93.760002,949.320007,637093
-105.480003,58.600002,949.320007,637097
-105.480003,70.32,961.040039,637101
-128.919998,82.040001,949.320007,637105
-128.919998,82.040001,961.040039,637109
-128.919998,82.040001,949.320007,637113
-128.919998,82.040001,937.600037,637117
-128.919998,82.040001,949.320007,637121
-152.360001,70.32,961.040039,637125
-128.919998,46.880001,949.320007,637129
-117.200005,70.32,937.600037,637133
-128.919998,70.32,937.600037,637137
-105.480003,70.32,949.320007,637141
-117.200005,82.040001,937.600037,637145
-128.919998,70.32,937.600037,637149
-117.200005,70.32,937.600037,637153
-117.200005,93.760002,961.040039,637157
-117.200005,82.040001,949.320007,637161
-140.639999,70.32,961.040039,637165
-128.919998,70.32,961.040039,637169
-117.200005,70.32,961.040039,637173
-128.919998,58.600002,961.040039,637177
-128.919998,46.880001,937.600037,637181
-128.919998,70.32,937.600037,637185
-105.480003,70.32,949.320007,637189
-117.200005,58.600002,949.320007,637193
-105.480003,70.32,937.600037,637197
-105.480003,70.32,961.040039,637201
-93.760002,70.32,949.320007,637205
-117.200005,93.760002,937.600037,637209
-117.200005,58.600002,937.600037,637213
-93.760002,82.040001,949.320007,637217
-93.760002,82.040001,949.320007,637221
-117.200005,82.040001,961.040039,637225
-105.480003,93.760002,949.320007,637229
-117.200005,93.760002,961.040039,637233
-128.919998,82.040001,961.040039,637237
-128.919998,93.760002,937.600037,637241
-140.639999,70.32,937.600037,637245
-140.639999,70.32,937.600037,637249
-128.919998,70.32,961.040039,637253
-140.639999,93.760002,972.76001,637257
-140.639999,82.040001,961.040039,637261
-105.480003,105.480003,949.320007,637265
-117.200005,58.600002,961.040039,637269
-117.200005,58.600002,937.600037,637273
-117.200005,70.32,925.880005,637277
-105.480003,93.760002,949.320007,637281
-105.480003,58.600002,949.320007,637285
-117.200005,58.600002,949.320007,637289
-128.919998,93.760002,937.600037,637293
-117.200005,82.040001,937.600037,637297
-105.480003,82.040001,949.320007,637301
-117.200005,70.32,972.76001,637305
-117.200005,105.480003,972.76001,637309
-105.480003,70.32,996.200012,637313
-117.200005,82.040001,984.480042,637317
-105.480003,82.040001,972.76001,637321
-117.200005,70.32,961.040039,637325
-105.480003,82.040001,961.040039,637329
-117.200005,82.040001,961.040039,637333
-140.639999,70.32,961.040039,637337
-128.919998,82.040001,972.76001,637341
-105.480003,70.32,961.040039,637345
-105.480003,70.32,949.320007,637349
-93.760002,82.040001,949.320007,637353
-128.919998,82.040001,949.320007,637357
-128.919998,70.32,949.320007,637361
-128.919998,93.760002,961.040039,637365
-128.919998,93.760002,949.320007,637369
-117.200005,70.32,961.040039,637373
-128.919998,82.040001,949.320007,637377
-117.200005,70.32,961.040039,637381
-117.200005,93.760002,949.320007,637385
-117.200005,70.32,961.040039,637389
-93.760002,93.760002,972.76001,637393
-117.200005,70.32,972.76001,637397
-140.639999,82.040001,949.320007,637401
-117.200005,93.760002,972.76001,637405
-105.480003,105.480003,961.040039,637409
-93.760002,82.040001,961.040039,637413
-128.919998,93.760002,937.600037,637417
-105.480003,105.480003,949.320007,637421
-105.480003,93.760002,961.040039,637425
-117.200005,70.32,972.76001,637429
-140.639999,58.600002,949.320007,637433
-105.480003,70.32,961.040039,637437
-128.919998,70.32,961.040039,637441
-117.200005,70.32,949.320007,637445
-105.480003,70.32,949.320007,637449
-93.760002,82.040001,961.040039,637453
-93.760002,82.040001,961.040039,637457
-105.480003,82.040001,949.320007,637461
-93.760002,93.760002,961.040039,637465
-128.919998,105.480003,949.320007,637469
-105.480003,105.480003,961.040039,637473
-105.480003,93.760002,949.320007,637477
-82.040001,93.760002,949.320007,637481
-128.919998,93.760002,949.320007,637485
-117.200005,46.880001,961.040039,637489
-140.639999,46.880001,949.320007,637493
-152.360001,46.880001,949.320007,637497
-140.639999,46.880001,961.040039,637501
-152.360001,93.760002,961.040039,637505
-117.200005,82.040001,961.040039,637509
-140.639999,93.760002,961.040039,637513
-128.919998,82.040001,949.320007,637517
-117.200005,82.040001,972.76001,637521
-128.919998,105.480003,949.320007,637525
-105.480003,93.760002,972.76001,637529
-128.919998,93.760002,961.040039,637533
-117.200005,82.040001,949.320007,637537
-117.200005,70.32,961.040039,637541
-128.919998,82.040001,961.040039,637545
-105.480003,82.040001,949.320007,637549
-93.760002,82.040001,949.320007,637553
-105.480003,82.040001,961.040039,637557
-105.480003,93.760002,937.600037,637561
-117.200005,70.32,937.600037,637565
-117.200005,105.480003,949.320007,637569
-117.200005,82.040001,949.320007,637573
-105.480003,70.32,949.320007,637577
-117.200005,58.600002,949.320007,637581
-117.200005,82.040001,949.320007,637585
-128.919998,82.040001,972.76001,637589
-117.200005,93.760002,961.040039,637593
-117.200005,82.040001,961.040039,637597
-140.639999,82.040001,961.040039,637601
-140.639999,82.040001,937.600037,637605
-152.360001,70.32,949.320007,637609
-128.919998,58.600002,949.320007,637613
-128.919998,46.880001,961.040039,637617
-140.639999,35.16,961.040039,637621
-117.200005,70.32,961.040039,637625
-128.919998,46.880001,961.040039,637629
-128.919998,70.32,949.320007,637633
-105.480003,82.040001,949.320007,637637
-105.480003,58.600002,949.320007,637641
-105.480003,58.600002,949.320007,637645
-105.480003,58.600002,961.040039,637649
-117.200005,58.600002,949.320007,637653
-117.200005,70.32,949.320007,637657
-105.480003,70.32,972.76001,637661
-105.480003,70.32,961.040039,637665
-117.200005,70.32,972.76001,637669
-117.200005,70.32,961.040039,637673
-117.200005,70.32,961.040039,637677
-105.480003,58.600002,961.040039,637681
-117.200005,82.040001,949.320007,637685
-105.480003,35.16,949.320007,637689
-105.480003,35.16,961.040039,637693
-117.200005,93.760002,961.040039,637697
-140.639999,93.760002,949.320007,637701
-117.200005,82.040001,961.040039,637705
-128.919998,58.600002,961.040039,637709
-128.919998,58.600002,949.320007,637713
-117.200005,70.32,949.320007,637717
-117.200005,58.600002,937.600037,637721
-117.200005,46.880001,949.320007,637725
-117.200005,105.480003,961.040039,637729
-128.919998,93.760002,949.320007,637733
-117.200005,93.760002,961.040039,637737
-140.639999,70.32,949.320007,637741
-105.480003,70.32,961.040039,637745
-117.200005,70.32,949.320007,637749
-105.480003,105.480003,949.320007,637753
-93.760002,82.040001,961.040039,637757
-93.760002,82.040001,972.76001,637761
-105.480003,82.040001,972.76001,637765
-105.480003,70.32,961.040039,637769
-117.200005,82.040001,961.040039,637773
-105.480003,82.040001,961.040039,637777
-140.639999,70.32,949.320007,637781
-140.639999,35.16,949.320007,637785
-117.200005,35.16,949.320007,637789
-105.480003,82.040001,949.320007,637793
-105.480003,82.040001,949.320007,637797
-105.480003,93.760002,961.040039,637801
-117.200005,70.32,949.320007,637805
-117.200005,46.880001,949.320007,637809
-105.480003,58.600002,961.040039,637813
-117.200005,58.600002,972.76001,637817
-117.200005,58.600002,961.040039,637821
-128.919998,58.600002,949.320007,637825
-105.480003,70.32,937.600037,637829
-93.760002,58.600002,949.320007,637833
-128.919998,82.040001,949.320007,637837
-128.919998,70.32,949.320007,637841
-128.919998,82.040001,949.320007,637845
-105.480003,70.32,949.320007,637849
-117.200005,58.600002,972.76001,637853
-117.200005,70.32,949.320007,637857
-105.480003,70.32,961.040039,637861
-93.760002,82.040001,996.200012,637865
-117.200005,82.040001,949.320007,637869
-117.200005,93.760002,949.320007,637873
-117.200005,105.480003,961.040039,637877
-140.639999,82.040001,961.040039,637881
-117.200005,82.040001,961.040039,637885
-117.200005,105.480003,949.320007,637889
-152.360001,93.760002,961.040039,637893
-117.200005,93.760002,949.320007,637897
-117.200005,70.32,949.320007,637901
-117.200005,70.32,937.600037,637905
-140.639999,82.040001,937.600037,637909
-105.480003,58.600002,949.320007,637913
-117.200005,70.32,961.040039,637917
-117.200005,105.480003,937.600037,637921
-105.480003,70.32,949.320007,637925
-128.919998,82.040001,937.600037,637929
-93.760002,58.600002,961.040039,637933
-93.760002,93.760002,949.320007,637937
-117.200005,82.040001,972.76001,637941
-105.480003,70.32,972.76001,637945
-128.919998,70.32,949.320007,637949
-128.919998,58.600002,949.320007,637953
-117.200005,105.480003,961.040039,637957
-117.200005,70.32,961.040039,637961
-128.919998,70.32,949.320007,637965
-105.480003,70.32,949.320007,637969
-93.760002,70.32,949.320007,637973
-105.480003,117.200005,949.320007,637977
-93.760002,93.760002,972.76001,637981
-117.200005,46.880001,949.320007,637985
-117.200005,58.600002,949.320007,637989
-117.200005,58.600002,949.320007,637993
-105.480003,46.880001,949.320007,637997
-105.480003,58.600002,961.040039,638001
-105.480003,46.880001,949.320007,638005
-117.200005,58.600002,949.320007,638009
-128.919998,70.32,984.480042,638013
-105.480003,58.600002,949.320007,638017
-117.200005,46.880001,972.76001,638021
-105.480003,35.16,961.040039,638025
-93.760002,46.880001,949.320007,638029
-117.200005,70.32,984.480042,638033
-140.639999,70.32,961.040039,638037
-117.200005,46.880001,949.320007,638041
-105.480003,93.760002,949.320007,638045
-105.480003,70.32,937.600037,638049
-93.760002,82.040001,937.600037,638053
-105.480003,93.760002,949.320007,638057
-105.480003,82.040001,961.040039,638061
-93.760002,93.760002,949.320007,638065
-93.760002,46.880001,949.320007,638069
-128.919998,58.600002,972.76001,638073
-105.480003,46.880001,961.040039,638077
-117.200005,58.600002,949.320007,638081
-128.919998,93.760002,949.320007,638085
-140.639999,58.600002,961.040039,638089
-117.200005,82.040001,961.040039,638093
-105.480003,82.040001,949.320007,638097
-93.760002,70.32,949.320007,638101
-105.480003,58.600002,949.320007,638105
-117.200005,93.760002,949.320007,638109
-117.200005,82.040001,925.880005,638113
-128.919998,70.32,937.600037,638117
-117.200005,46.880001,937.600037,638121
-105.480003,46.880001,961.040039,638125
-105.480003,70.32,949.320007,638129
-140.639999,82.040001,949.320007,638133
-117.200005,82.040001,949.320007,638137
-117.200005,93.760002,937.600037,638141
-117.200005,58.600002,937.600037,638145
-105.480003,58.600002,937.600037,638149
-117.200005,82.040001,925.880005,638153
-140.639999,93.760002,937.600037,638157
-105.480003,58.600002,961.040039,638161
-105.480003,70.32,949.320007,638165
-105.480003,58.600002,961.040039,638169
-117.200005,82.040001,961.040039,638173
-152.360001,58.600002,961.040039,638177
-117.200005,82.040001,949.320007,638181
-117.200005,70.32,937.600037,638185
-128.919998,58.600002,949.320007,638189
-128.919998,93.760002,949.320007,638193
-117.200005,70.32,949.320007,638197
-128.919998,70.32,937.600037,638201
-128.919998,70.32,937.600037,638205
-128.919998,46.880001,949.320007,638209
-117.200005,46.880001,961.040039,638213
-140.639999,70.32,949.320007,638217
-140.639999,58.600002,961.040039,638221
-128.919998,58.600002,949.320007,638225
-105.480003,58.600002,961.040039,638229
-105.480003,70.32,961.040039,638233
-140.639999,93.760002,961.040039,638237
-128.919998,117.200005,949.320007,638241
-105.480003,93.760002,949.320007,638245
-117.200005,70.32,961.040039,638249
-105.480003,58.600002,961.040039,638253
-93.760002,58.600002,937.600037,638257
-105.480003,58.600002,925.880005,638261
-105.480003,82.040001,937.600037,638265
-105.480003,93.760002,937.600037,638269
-117.200005,70.32,949.320007,638273
-128.919998,82.040001,949.320007,638277
-117.200005,82.040001,961.040039,638281
-128.919998,58.600002,961.040039,638285
-140.639999,58.600002,972.76001,638289
-117.200005,82.040001,949.320007,638293
-140.639999,82.040001,972.76001,638297
-128.919998,93.760002,972.76001,638301
-128.919998,58.600002,961.040039,638305
-117.200005,46.880001,937.600037,638309
-117.200005,70.32,949.320007,638313
-105.480003,82.040001,972.76001,638317
-105.480003,70.32,961.040039,638321
-105.480003,58.600002,961.040039,638325
-105.480003,82.040001,961.040039,638329
-105.480003,70.32,961.040039,638333
-105.480003,70.32,984.480042,638337
-105.480003,70.32,949.320007,638341
-128.919998,58.600002,949.320007,638345
-128.919998,82.040001,972.76001,638349
-105.480003,93.760002,961.040039,638353
-117.200005,82.040001,949.320007,638357
-117.200005,93.760002,949.320007,638361
-117.200005,70.32,949.320007,638365
-105.480003,93.760002,961.040039,638369
-105.480003,82.040001,949.320007,638373
-105.480003,46.880001,949.320007,638377
-117.200005,58.600002,961.040039,638381
-105.480003,58.600002,972.76001,638385
-105.480003,58.600002,949.320007,638389
-117.200005,105.480003,961.040039,638393
-117.200005,82.040001,949.320007,638397
-128.919998,82.040001,949.320007,638401
-128.919998,70.32,949.320007,638405
-117.200005,46.880001,949.320007,638409
-93.760002,93.760002,972.76001,638413
-93.760002,93.760002,949.320007,638417
-105.480003,93.760002,961.040039,638421
-117.200005,105.480003,949.320007,638425
-117.200005,82.040001,949.320007,638429
-105.480003,70.32,961.040039,638433
-105.480003,46.880001,949.320007,638437
-105.480003,58.600002,949.320007,638441
-93.760002,93.760002,961.040039,638445
-117.200005,82.040001,925.880005,638449
-117.200005,70.32,937.600037,638453
-140.639999,70.32,937.600037,638457
-105.480003,70.32,949.320007,638461
-128.919998,58.600002,949.320007,638465
-117.200005,70.32,937.600037,638469
-117.200005,58.600002,937.600037,638473
-105.480003,70.32,972.76001,638477
-117.200005,105.480003,949.320007,638481
-117.200005,93.760002,949.320007,638485
-128.919998,105.480003,949.320007,638489
-117.200005,70.32,972.76001,638493
-117.200005,58.600002,972.76001,638497
-105.480003,70.32,949.320007,638501
-140.639999,70.32,937.600037,638505
-128.919998,58.600002,937.600037,638509
-105.480003,70.32,949.320007,638513
-105.480003,35.16,949.320007,638517
-117.200005,70.32,972.76001,638521
-117.200005,70.32,949.320007,638525
-105.480003,58.600002,949.320007,638529
-117.200005,58.600002,961.040039,638533
-128.919998,93.760002,961.040039,638537
-93.760002,70.32,961.040039,638541
-93.760002,70.32,961.040039,638545
-117.200005,93.760002,961.040039,638549
-117.200005,93.760002,961.040039,638553
-117.200005,82.040001,972.76001,638557
-117.200005,70.32,972.76001,638561
-128.919998,70.32,961.040039,638565
-105.480003,82.040001,949.320007,638569
-105.480003,58.600002,949.320007,638573
-105.480003,58.600002,949.320007,638577
-128.919998,105.480003,949.320007,638581
-117.200005,93.760002,961.040039,638585
-140.639999,105.480003,949.320007,638589
-117.200005,105.480003,937.600037,638593
-117.200005,93.760002,961.040039,638597
-117.200005,82.040001,984.480042,638601
-140.639999,70.32,972.76001,638605
-128.919998,70.32,972.76001,638609
-117.200005,46.880001,972.76001,638613
-140.639999,70.32,961.040039,638617
-140.639999,58.600002,949.320007,638621
-128.919998,93.760002,949.320007,638625
-117.200005,82.040001,949.320007,638629
-128.919998,82.040001,949.320007,638633
-117.200005,58.600002,961.040039,638637
-128.919998,70.32,949.320007,638641
-117.200005,82.040001,949.320007,638645
-128.919998,93.760002,949.320007,638649
-105.480003,82.040001,949.320007,638653
-117.200005,82.040001,937.600037,638657
-128.919998,70.32,937.600037,638661
-117.200005,82.040001,972.76001,638665
-128.919998,70.32,961.040039,638669
-117.200005,58.600002,937.600037,638673
-117.200005,70.32,937.600037,638677
-117.200005,105.480003,925.880005,638681
-117.200005,70.32,972.76001,638685
-105.480003,70.32,961.040039,638689
-140.639999,70.32,972.76001,638693
-128.919998,82.040001,972.76001,638697
-117.200005,82.040001,949.320007,638701
-117.200005,82.040001,949.320007,638705
-105.480003,58.600002,961.040039,638709
-117.200005,105.480003,937.600037,638713
-128.919998,117.200005,937.600037,638717
-128.919998,70.32,972.76001,638721
-117.200005,58.600002,949.320007,638725
-105.480003,46.880001,949.320007,638729
-117.200005,46.880001,949.320007,638733
-117.200005,58.600002,949.320007,638737
-117.200005,82.040001,961.040039,638741
-117.200005,93.760002,961.040039,638745
-105.480003,58.600002,961.040039,638749
-105.480003,58.600002,961.040039,638753
-128.919998,82.040001,972.76001,638757
-117.200005,82.040001,961.040039,638761
-117.200005,82.040001,949.320007,638765
-117.200005,70.32,937.600037,638769
-128.919998,58.600002,925.880005,638773
-128.919998,58.600002,961.040039,638777
-117.200005,82.040001,984.480042,638781
-105.480003,82.040001,949.320007,638785
-105.480003,117.200005,949.320007,638789
-128.919998,82.040001,961.040039,638793
-105.480003,93.760002,949.320007,638797
-93.760002,93.760002,961.040039,638801
-117.200005,82.040001,961.040039,638805
-117.200005,105.480003,949.320007,638809
-152.360001,105.480003,949.320007,638813
-117.200005,82.040001,937.600037,638817
-117.200005,70.32,961.040039,638821
-105.480003,82.040001,961.040039,638825
-128.919998,70.32,961.040039,638829
-117.200005,46.880001,949.320007,638833
-117.200005,46.880001,949.320007,638837
-128.919998,82.040001,961.040039,638841
-105.480003,82.040001,961.040039,638845
-117.200005,117.200005,961.040039,638849
-117.200005,93.760002,961.040039,638853
-117.200005,70.32,961.040039,638857
-105.480003,93.760002,961.040039,638861
-117.200005,46.880001,961.040039,638865
-128.919998,82.040001,972.76001,638869
-105.480003,82.040001,961.040039,638873
-117.200005,93.760002,949.320007,638877
-105.480003,82.040001,949.320007,638881
-105.480003,58.600002,949.320007,638885
-105.480003,82.040001,949.320007,638889
-93.760002,82.040001,949.320007,638893
-93.760002,70.32,961.040039,638897
-117.200005,70.32,949.320007,638901
-105.480003,70.32,949.320007,638905
-105.480003,93.760002,961.040039,638909
-117.200005,35.16,937.600037,638913
-93.760002,70.32,949.320007,638917
-105.480003,82.040001,949.320007,638921
-128.919998,82.040001,949.320007,638925
-128.919998,93.760002,949.320007,638929
-105.480003,82.040001,961.040039,638933
-117.200005,93.760002,961.040039,638937
-105.480003,70.32,949.320007,638941
-128.919998,82.040001,949.320007,638945
-128.919998,93.760002,949.320007,638949
-105.480003,46.880001,949.320007,638953
-117.200005,58.600002,961.040039,638957
-105.480003,35.16,949.320007,638961
-117.200005,46.880001,949.320007,638965
-117.200005,58.600002,972.76001,638969
-140.639999,82.040001,996.200012,638973
-117.200005,58.600002,972.76001,638977
-140.639999,70.32,961.040039,638981
-140.639999,58.600002,949.320007,638985
-105.480003,70.32,949.320007,638989
-117.200005,70.32,937.600037,638993
-128.919998,70.32,949.320007,638997
-128.919998,46.880001,949.320007,639001
-117.200005,70.32,961.040039,639005
-117.200005,82.040001,961.040039,639009
-128.919998,82.040001,949.320007,639013
-117.200005,82.040001,949.320007,639017
-117.200005,70.32,949.320007,639021
-117.200005,58.600002,961.040039,639025
-117.200005,70.32,949.320007,639029
-105.480003,82.040001,949.320007,639033
-93.760002,93.760002,949.320007,639037
-117.200005,82.040001,949.320007,639041
-117.200005,82.040001,949.320007,639045
-128.919998,82.040001,949.320007,639049
-128.919998,82.040001,937.600037,639053
-117.200005,58.600002,949.320007,639057
-140.639999,70.32,961.040039,639061
-117.200005,70.32,961.040039,639065
-117.200005,58.600002,949.320007,639069
-128.919998,58.600002,961.040039,639073
-152.360001,70.32,972.76001,639077
-105.480003,93.760002,961.040039,639081
-105.480003,93.760002,961.040039,639085
-93.760002,93.760002,961.040039,639089
-117.200005,82.040001,937.600037,639093
-117.200005,58.600002,937.600037,639097
-140.639999,58.600002,937.600037,639101
-140.639999,35.16,937.600037,639105
-140.639999,46.880001,925.880005,639109
-128.919998,58.600002,949.320007,639113
-128.919998,82.040001,961.040039,639117
-93.760002,82.040001,949.320007,639121
-117.200005,58.600002,961.040039,639125
-93.760002,105.480003,961.040039,639129
-93.760002,82.040001,949.320007,639133
-93.760002,82.040001,961.040039,639137
-93.760002,82.040001,961.040039,639141
-93.760002,82.040001,961.040039,639145
-140.639999,105.480003,937.600037,639149
-140.639999,82.040001,937.600037,639153
-128.919998,105.480003,949.320007,639157
-117.200005,93.760002,949.320007,639161
-105.480003,82.040001,949.320007,639165
-105.480003,70.32,961.040039,639169
-117.200005,93.760002,949.320007,639173
-105.480003,93.760002,949.320007,639177
-105.480003,82.040001,949.320007,639181
-105.480003,93.760002,996.200012,639185
-93.760002,58.600002,972.76001,639189
-93.760002,82.040001,961.040039,639193
-117.200005,93.760002,961.040039,639197
-105.480003,70.32,961.040039,639201
-117.200005,82.040001,961.040039,639205
-117.200005,93.760002,961.040039,639209
-140.639999,70.32,949.320007,639213
-117.200005,70.32,949.320007,639217
-105.480003,58.600002,961.040039,639221
-93.760002,58.600002,949.320007,639225
-105.480003,93.760002,961.040039,639229
-117.200005,70.32,949.320007,639233
-117.200005,58.600002,949.320007,639237
-105.480003,70.32,937.600037,639241
-117.200005,70.32,914.160034,639245
-105.480003,70.32,937.600037,639249
-117.200005,70.32,937.600037,639253
-117.200005,70.32,949.320007,639257
-117.200005,82.040001,961.040039,639261
-93.760002,93.760002,949.320007,639265
-105.480003,105.480003,949.320007,639269
-105.480003,117.200005,949.320007,639273
-117.200005,82.040001,949.320007,639277
-152.360001,70.32,949.320007,639281
-105.480003,93.760002,949.320007,639285
-117.200005,58.600002,961.040039,639289
-117.200005,93.760002,961.040039,639293
-117.200005,70.32,961.040039,639297
-140.639999,70.32,949.320007,639301
-117.200005,82.040001,949.320007,639305
-105.480003,70.32,949.320007,639309
-117.200005,70.32,961.040039,639313
-105.480003,70.32,961.040039,639317
-117.200005,82.040001,961.040039,639321
-128.919998,58.600002,961.040039,639325
-105.480003,70.32,961.040039,639329
-93.760002,58.600002,937.600037,639333
-93.760002,70.32,949.320007,639337
-117.200005,70.32,949.320007,639341
-117.200005,82.040001,961.040039,639345
-117.200005,82.040001,961.040039,639349
-105.480003,82.040001,937.600037,639353
-93.760002,82.040001,949.320007,639357
-105.480003,82.040001,949.320007,639361
-105.480003,46.880001,961.040039,639365
-105.480003,70.32,961.040039,639369
-117.200005,82.040001,949.320007,639373
-117.200005,70.32,949.320007,639377
-105.480003,58.600002,949.320007,639381
-105.480003,82.040001,949.320007,639385
-117.200005,82.040001,937.600037,639389
-105.480003,93.760002,937.600037,639393
-105.480003,93.760002,937.600037,639397
-117.200005,70.32,937.600037,639401
-105.480003,117.200005,961.040039,639405
-105.480003,82.040001,949.320007,639409
-117.200005,117.200005,937.600037,639413
-105.480003,105.480003,949.320007,639417
-128.919998,93.760002,949.320007,639421
-105.480003,82.040001,949.320007,639425
-93.760002,82.040001,961.040039,639429
-93.760002,70.32,937.600037,639433
-93.760002,46.880001,949.320007,639437
-128.919998,46.880001,949.320007,639441
-105.480003,58.600002,961.040039,639445
-117.200005,70.32,949.320007,639449
-117.200005,105.480003,961.040039,639453
-128.919998,105.480003,961.040039,639457
-105.480003,105.480003,949.320007,639461
-105.480003,70.32,972.76001,639465
-140.639999,105.480003,949.320007,639469
-140.639999,70.32,949.320007,639473
-128.919998,58.600002,949.320007,639477
-128.919998,82.040001,984.480042,639481
-105.480003,82.040001,984.480042,639485
-117.200005,117.200005,949.320007,639489
-128.919998,82.040001,949.320007,639493
-105.480003,93.760002,937.600037,639497
-128.919998,58.600002,972.76001,639501
-117.200005,82.040001,972.76001,639505
-128.919998,117.200005,972.76001,639509
-117.200005,105.480003,961.040039,639513
-128.919998,58.600002,949.320007,639517
-117.200005,58.600002,937.600037,639521
-105.480003,58.600002,961.040039,639525
-105.480003,93.760002,961.040039,639529
-93.760002,70.32,949.320007,639533
-105.480003,58.600002,972.76001,639537
-105.480003,70.32,961.040039,639541
-105.480003,46.880001,961.040039,639545
-105.480003,46.880001,949.320007,639549
-117.200005,93.760002,949.320007,639553
-140.639999,70.32,949.320007,639557
-140.639999,70.32,961.040039,639561
-140.639999,93.760002,961.040039,639565
-117.200005,117.200005,949.320007,639569
-117.200005,70.32,937.600037,639573
-105.480003,70.32,925.880005,639577
-105.480003,70.32,937.600037,639581
-93.760002,70.32,937.600037,639585
-117.200005,82.040001,937.600037,639589
-117.200005,82.040001,961.040039,639593
-128.919998,82.040001,972.76001,639597
-117.200005,70.32,961.040039,639601
-117.200005,70.32,961.040039,639605
-105.480003,82.040001,961.040039,639609
-105.480003,70.32,949.320007,639613
-117.200005,58.600002,949.320007,639617
-140.639999,70.32,949.320007,639621
-128.919998,82.040001,949.320007,639625
-117.200005,58.600002,961.040039,639629
-105.480003,70.32,949.320007,639633
-105.480003,82.040001,961.040039,639637
-105.480003,70.32,937.600037,639641
-117.200005,70.32,925.880005,639645
-117.200005,82.040001,937.600037,639649
-105.480003,82.040001,949.320007,639653
-140.639999,70.32,961.040039,639657
-117.200005,82.040001,961.040039,639661
-117.200005,70.32,949.320007,639665
-140.639999,70.32,961.040039,639669
-140.639999,82.040001,949.320007,639673
-128.919998,82.040001,972.76001,639677
-128.919998,58.600002,972.76001,639681
-140.639999,82.040001,937.600037,639685
-128.919998,70.32,937.600037,639689
-117.200005,35.16,961.040039,639693
-117.200005,58.600002,984.480042,639697
-117.200005,70.32,961.040039,639701
-117.200005,35.16,961.040039,639705
-128.919998,58.600002,972.76001,639709
-117.200005,82.040001,949.320007,639713
-105.480003,70.32,961.040039,639717
-140.639999,70.32,961.040039,639721
-128.919998,82.040001,961.040039,639725
-117.200005,70.32,949.320007,639729
-117.200005,58.600002,937.600037,639733
-128.919998,58.600002,949.320007,639737
-128.919998,58.600002,949.320007,639741
-117.200005,58.600002,949.320007,639745
-140.639999,58.600002,937.600037,639749
-128.919998,70.32,937.600037,639753
-105.480003,70.32,949.320007,639757
-140.639999,58.600002,984.480042,639761
-128.919998,70.32,961.040039,639765
-117.200005,35.16,961.040039,639769
-105.480003,46.880001,961.040039,639773
-105.480003,70.32,949.320007,639777
-105.480003,46.880001,961.040039,639781
-93.760002,58.600002,949.320007,639785
-105.480003,93.760002,937.600037,639789
-128.919998,105.480003,937.600037,639793
-93.760002,93.760002,949.320007,639797
-105.480003,70.32,949.320007,639801
-93.760002,58.600002,961.040039,639805
-105.480003,82.040001,949.320007,639809
-105.480003,58.600002,925.880005,639813
-105.480003,46.880001,961.040039,639817
-105.480003,82.040001,949.320007,639821
-105.480003,58.600002,961.040039,639825
-117.200005,70.32,949.320007,639829
-117.200005,58.600002,949.320007,639833
-140.639999,35.16,949.320007,639837
-105.480003,58.600002,949.320007,639841
-105.480003,82.040001,961.040039,639845
-128.919998,70.32,961.040039,639849
-117.200005,82.040001,949.320007,639853
-128.919998,93.760002,949.320007,639857
-105.480003,70.32,949.320007,639861
-93.760002,46.880001,949.320007,639865
-105.480003,93.760002,961.040039,639869
-117.200005,93.760002,937.600037,639873
-152.360001,58.600002,937.600037,639877
-140.639999,35.16,937.600037,639881
-128.919998,70.32,949.320007,639885
-117.200005,82.040001,949.320007,639889
-105.480003,93.760002,949.320007,639893
-105.480003,70.32,984.480042,639897
-117.200005,46.880001,961.040039,639901
-117.200005,58.600002,949.320007,639905
-128.919998,93.760002,961.040039,639909
-140.639999,70.32,949.320007,639913
-117.200005,70.32,949.320007,639917
-140.639999,82.040001,961.040039,639921
-117.200005,58.600002,937.600037,639925
-128.919998,46.880001,949.320007,639929
-93.760002,70.32,949.320007,639933
-128.919998,58.600002,961.040039,639937
-105.480003,93.760002,972.76001,639941
-128.919998,117.200005,949.320007,639945
-128.919998,82.040001,949.320007,639949
-140.639999,70.32,961.040039,639953
-117.200005,70.32,961.040039,639957
-140.639999,70.32,961.040039,639961
-140.639999,58.600002,949.320007,639965
-128.919998,93.760002,949.320007,639969
-105.480003,46.880001,937.600037,639973
-117.200005,82.040001,949.320007,639977
-128.919998,70.32,937.600037,639981
-105.480003,70.32,949.320007,639985
-105.480003,82.040001,961.040039,639989
-82.040001,58.600002,972.76001,639993
-105.480003,82.040001,961.040039,639997
-117.200005,70.32,949.320007,640001
-117.200005,70.32,961.040039,640005
-105.480003,58.600002,949.320007,640009
-105.480003,46.880001,949.320007,640013
-117.200005,82.040001,949.320007,640017
-117.200005,105.480003,949.320007,640021
-128.919998,117.200005,949.320007,640025
-117.200005,93.760002,949.320007,640029
-105.480003,82.040001,949.320007,640033
-105.480003,70.32,984.480042,640037
-105.480003,70.32,961.040039,640041
-105.480003,70.32,949.320007,640045
-105.480003,70.32,949.320007,640049
-105.480003,58.600002,961.040039,640053
-105.480003,46.880001,949.320007,640057
-117.200005,58.600002,961.040039,640061
-140.639999,70.32,937.600037,640065
-128.919998,82.040001,937.600037,640069
-105.480003,70.32,961.040039,640073
-105.480003,82.040001,949.320007,640077
-93.760002,93.760002,961.040039,640081
-117.200005,93.760002,961.040039,640085
-105.480003,93.760002,949.320007,640089
-140.639999,82.040001,949.320007,640093
-128.919998,70.32,949.320007,640097
-105.480003,58.600002,949.320007,640101
-93.760002,93.760002,937.600037,640105
-105.480003,82.040001,937.600037,640109
-105.480003,70.32,949.320007,640113
-117.200005,58.600002,949.320007,640117
-105.480003,58.600002,961.040039,640121
-128.919998,70.32,949.320007,640125
-117.200005,82.040001,961.040039,640129
-117.200005,93.760002,961.040039,640133
-117.200005,70.32,972.76001,640137
-105.480003,82.040001,961.040039,640141
-117.200005,58.600002,961.040039,640145
-128.919998,93.760002,972.76001,640149
-128.919998,58.600002,961.040039,640153
-140.639999,58.600002,949.320007,640157
-128.919998,82.040001,949.320007,640161
-140.639999,93.760002,961.040039,640165
-117.200005,58.600002,949.320007,640169
-128.919998,46.880001,972.76001,640173
-140.639999,82.040001,937.600037,640177
-164.080002,58.600002,937.600037,640181
-128.919998,70.32,961.040039,640185
-105.480003,82.040001,949.320007,640189
-128.919998,82.040001,961.040039,640193
-128.919998,82.040001,961.040039,640197
-105.480003,93.760002,937.600037,640201
-105.480003,93.760002,949.320007,640205
-117.200005,82.040001,949.320007,640209
-117.200005,46.880001,961.040039,640213
-140.639999,82.040001,961.040039,640217
-128.919998,70.32,972.76001,640221
-105.480003,105.480003,961.040039,640225
-93.760002,82.040001,961.040039,640229
-93.760002,93.760002,972.76001,640233
-128.919998,58.600002,961.040039,640237
-93.760002,70.32,937.600037,640241
-93.760002,82.040001,949.320007,640245
-117.200005,58.600002,961.040039,640249
-93.760002,82.040001,996.200012,640253
-105.480003,82.040001,972.76001,640257
-105.480003,93.760002,961.040039,640261
-105.480003,46.880001,961.040039,640265
-93.760002,93.760002,961.040039,640269
-105.480003,93.760002,937.600037,640273
-128.919998,82.040001,949.320007,640277
-128.919998,82.040001,961.040039,640281
-128.919998,82.040001,949.320007,640285
-117.200005,58.600002,949.320007,640289
-117.200005,93.760002,961.040039,640293
-105.480003,82.040001,984.480042,640297
-105.480003,82.040001,961.040039,640301
-128.919998,70.32,961.040039,640305
-117.200005,58.600002,949.320007,640309
-117.200005,82.040001,949.320007,640313
-128.919998,93.760002,949.320007,640317
-117.200005,70.32,949.320007,640321
-105.480003,82.040001,949.320007,640325
-93.760002,82.040001,949.320007,640329
-105.480003,58.600002,937.600037,640333
-105.480003,82.040001,949.320007,640337
-117.200005,82.040001,949.320007,640341
-128.919998,58.600002,961.040039,640345
-105.480003,70.32,972.76001,640349
-105.480003,93.760002,949.320007,640353
-117.200005,93.760002,949.320007,640357
-140.639999,70.32,961.040039,640361
-164.080002,70.32,961.040039,640365
-140.639999,58.600002,961.040039,640369
-140.639999,82.040001,972.76001,640373
-117.200005,93.760002,961.040039,640377
-117.200005,82.040001,949.320007,640381
-128.919998,93.760002,949.320007,640385
-140.639999,93.760002,961.040039,640389
-140.639999,82.040001,949.320007,640393
-152.360001,70.32,914.160034,640397
-152.360001,70.32,949.320007,640401
-152.360001,58.600002,961.040039,640405
-105.480003,93.760002,949.320007,640409
-105.480003,93.760002,961.040039,640413
-128.919998,58.600002,961.040039,640417
-105.480003,46.880001,961.040039,640421
-117.200005,46.880001,949.320007,640425
-117.200005,58.600002,949.320007,640429
-117.200005,58.600002,961.040039,640433
-117.200005,35.16,949.320007,640437
-105.480003,58.600002,949.320007,640441
-105.480003,70.32,949.320007,640445
-93.760002,70.32,961.040039,640449
-117.200005,58.600002,949.320007,640453
-105.480003,93.760002,937.600037,640457
-117.200005,58.600002,949.320007,640461
-117.200005,93.760002,937.600037,640465
-117.200005,93.760002,949.320007,640469
-117.200005,82.040001,961.040039,640473
-128.919998,82.040001,972.76001,640477
-128.919998,93.760002,972.76001,640481
-117.200005,105.480003,984.480042,640485
-117.200005,93.760002,961.040039,640489
-117.200005,93.760002,972.76001,640493
-105.480003,82.040001,984.480042,640497
-117.200005,93.760002,949.320007,640501
-128.919998,82.040001,949.320007,640505
-117.200005,93.760002,961.040039,640509
-128.919998,93.760002,949.320007,640513
-117.200005,93.760002,961.040039,640517
-117.200005,93.760002,961.040039,640521
-117.200005,82.040001,961.040039,640525
-128.919998,58.600002,949.320007,640529
-117.200005,70.32,949.320007,640533
-105.480003,82.040001,961.040039,640537
-128.919998,70.32,961.040039,640541
-117.200005,46.880001,949.320007,640545
-117.200005,70.32,961.040039,640549
-117.200005,82.040001,961.040039,640553
-93.760002,93.760002,972.76001,640557
-117.200005,82.040001,972.76001,640561
-128.919998,58.600002,961.040039,640565
-105.480003,82.040001,961.040039,640569
-117.200005,82.040001,949.320007,640573
-105.480003,82.040001,961.040039,640577
-105.480003,93.760002,961.040039,640581
-128.919998,93.760002,937.600037,640585
-117.200005,93.760002,925.880005,640589
-117.200005,82.040001,937.600037,640593
-117.200005,82.040001,949.320007,640597
-117.200005,70.32,961.040039,640601
-117.200005,70.32,961.040039,640605
-117.200005,70.32,961.040039,640609
-117.200005,70.32,972.76001,640613
-128.919998,58.600002,961.040039,640617
-117.200005,70.32,949.320007,640621
-117.200005,58.600002,984.480042,640625
-117.200005,82.040001,961.040039,640629
-117.200005,58.600002,972.76001,640633
-105.480003,70.32,972.76001,640637
-105.480003,70.32,961.040039,640641
-105.480003,58.600002,961.040039,640645
-105.480003,82.040001,949.320007,640649
-105.480003,93.760002,949.320007,640653
-117.200005,70.32,949.320007,640657
-105.480003,58.600002,949.320007,640661
-128.919998,82.040001,972.76001,640665
-117.200005,58.600002,984.480042,640669
-128.919998,70.32,961.040039,640673
-105.480003,93.760002,949.320007,640677
-93.760002,70.32,949.320007,640681
-128.919998,93.760002,961.040039,640685
-117.200005,58.600002,961.040039,640689
-117.200005,82.040001,961.040039,640693
-117.200005,93.760002,949.320007,640697
-105.480003,82.040001,972.76001,640701
-105.480003,105.480003,984.480042,640705
-117.200005,93.760002,961.040039,640709
-128.919998,82.040001,972.76001,640713
-128.919998,82.040001,972.76001,640717
-128.919998,82.040001,961.040039,640721
-117.200005,70.32,937.600037,640725
-105.480003,58.600002,937.600037,640729
-117.200005,70.32,961.040039,640733
-117.200005,58.600002,961.040039,640737
-140.639999,82.040001,949.320007,640741
-105.480003,70.32,949.320007,640745
-93.760002,58.600002,961.040039,640749
-117.200005,46.880001,949.320007,640753
-128.919998,70.32,961.040039,640757
-140.639999,46.880001,961.040039,640761
-152.360001,58.600002,961.040039,640765
-117.200005,82.040001,949.320007,640769
-152.360001,82.040001,949.320007,640773
-117.200005,70.32,961.040039,640777
-105.480003,58.600002,961.040039,640781
-105.480003,46.880001,949.320007,640785
-105.480003,46.880001,949.320007,640789
-117.200005,58.600002,949.320007,640793
-105.480003,93.760002,984.480042,640797
-128.919998,58.600002,949.320007,640801
-105.480003,93.760002,949.320007,640805
-93.760002,93.760002,949.320007,640809
-105.480003,82.040001,949.320007,640813
-117.200005,70.32,972.76001,640817
-105.480003,46.880001,961.040039,640821
-117.200005,35.16,949.320007,640825
-105.480003,58.600002,949.320007,640829
-105.480003,46.880001,961.040039,640833
-117.200005,70.32,949.320007,640837
-128.919998,70.32,961.040039,640841
-105.480003,70.32,949.320007,640845
-117.200005,70.32,972.76001,640849
-117.200005,82.040001,972.76001,640853
-128.919998,58.600002,961.040039,640857
-128.919998,105.480003,937.600037,640861
-117.200005,70.32,937.600037,640865
-128.919998,82.040001,949.320007,640869
-117.200005,82.040001,949.320007,640873
-105.480003,82.040001,949.320007,640877
-105.480003,70.32,961.040039,640881
-117.200005,70.32,937.600037,640885
-117.200005,46.880001,937.600037,640889
-105.480003,82.040001,961.040039,640893
-117.200005,93.760002,961.040039,640897
-117.200005,82.040001,937.600037,640901
-105.480003,93.760002,949.320007,640905
-105.480003,82.040001,961.040039,640909
-105.480003,93.760002,949.320007,640913
-128.919998,82.040001,949.320007,640917
-105.480003,82.040001,949.320007,640921
-105.480003,93.760002,961.040039,640925
-117.200005,82.040001,961.040039,640929
-105.480003,82.040001,949.320007,640933
-128.919998,82.040001,961.040039,640937
-105.480003,93.760002,937.600037,640941
-93.760002,93.760002,972.76001,640945
-128.919998,105.480003,925.880005,640949
-105.480003,105.480003,937.600037,640953
-117.200005,70.32,937.600037,640957
-128.919998,70.32,949.320007,640961
-140.639999,93.760002,949.320007,640965
-128.919998,70.32,949.320007,640969
-93.760002,82.040001,937.600037,640973
-105.480003,70.32,949.320007,640977
-93.760002,70.32,949.320007,640981
-105.480003,82.040001,949.320007,640985
-93.760002,58.600002,949.320007,640989
-128.919998,82.040001,949.320007,640993
-105.480003,93.760002,949.320007,640997
-93.760002,58.600002,949.320007,641001
-105.480003,82.040001,972.76001,641005
-93.760002,82.040001,961.040039,641009
-128.919998,70.32,937.600037,641013
-128.919998,70.32,937.600037,641017
-105.480003,82.040001,937.600037,641021
-128.919998,70.32,937.600037,641025
-117.200005,82.040001,984.480042,641029
-93.760002,82.040001,961.040039,641033
-105.480003,82.040001,949.320007,641037
-105.480003,82.040001,961.040039,641041
-93.760002,82.040001,949.320007,641045
-117.200005,46.880001,961.040039,641049
-117.200005,46.880001,961.040039,641053
-105.480003,70.32,961.040039,641057
-117.200005,70.32,961.040039,641061
-117.200005,70.32,972.76001,641065
-128.919998,70.32,949.320007,641069
-117.200005,58.600002,961.040039,641073
-105.480003,82.040001,949.320007,641077
-117.200005,70.32,961.040039,641081
-93.760002,58.600002,961.040039,641085
-117.200005,82.040001,961.040039,641089
-117.200005,105.480003,972.76001,641093
-117.200005,82.040001,961.040039,641097
-128.919998,70.32,972.76001,641101
-140.639999,82.040001,961.040039,641105
-140.639999,82.040001,961.040039,641109
-117.200005,82.040001,961.040039,641113
-117.200005,82.040001,949.320007,641117
-128.919998,70.32,961.040039,641121
-117.200005,70.32,949.320007,641125
-117.200005,58.600002,937.600037,641129
-117.200005,35.16,949.320007,641133
-105.480003,70.32,949.320007,641137
-128.919998,93.760002,949.320007,641141
-140.639999,70.32,949.320007,641145
-140.639999,82.040001,949.320007,641149
-128.919998,82.040001,961.040039,641153
-117.200005,82.040001,949.320007,641157
-105.480003,58.600002,972.76001,641161
-93.760002,70.32,984.480042,641165
-105.480003,58.600002,961.040039,641169
-105.480003,58.600002,961.040039,641173
-128.919998,82.040001,961.040039,641177
-117.200005,70.32,937.600037,641181
-128.919998,82.040001,937.600037,641185
-128.919998,117.200005,937.600037,641189
-117.200005,93.760002,937.600037,641193
-105.480003,82.040001,949.320007,641197
-105.480003,70.32,949.320007,641201
-117.200005,93.760002,949.320007,641205
-117.200005,82.040001,961.040039,641209
-105.480003,70.32,949.320007,641213
-117.200005,70.32,961.040039,641217
-105.480003,46.880001,961.040039,641221
-117.200005,46.880001,961.040039,641225
-117.200005,70.32,961.040039,641229
-128.919998,35.16,961.040039,641233
-128.919998,70.32,949.320007,641237
-117.200005,70.32,961.040039,641241
-105.480003,58.600002,972.76001,641245
-117.200005,93.760002,961.040039,641249
-128.919998,58.600002,949.320007,641253
-105.480003,58.600002,949.320007,641257
-117.200005,70.32,949.320007,641261
-117.200005,70.32,949.320007,641265
-128.919998,93.760002,961.040039,641269
-117.200005,105.480003,949.320007,641273
-128.919998,70.32,961.040039,641277
-128.919998,58.600002,949.320007,641281
-128.919998,82.040001,949.320007,641285
-117.200005,105.480003,937.600037,641289
-117.200005,93.760002,937.600037,641293
-128.919998,82.040001,949.320007,641297
-117.200005,70.32,972.76001,641301
-140.639999,82.040001,961.040039,641305
-140.639999,70.32,961.040039,641309
-128.919998,93.760002,972.76001,641313
-128.919998,58.600002,996.200012,641317
-105.480003,70.32,937.600037,641321
-105.480003,93.760002,937.600037,641325
-105.480003,58.600002,949.320007,641329
-105.480003,82.040001,949.320007,641333
-117.200005,70.32,961.040039,641337
-128.919998,46.880001,949.320007,641341
-105.480003,46.880001,972.76001,641345
-105.480003,58.600002,961.040039,641349
-105.480003,82.040001,937.600037,641353
-128.919998,93.760002,972.76001,641357
-117.200005,70.32,961.040039,641361
-117.200005,82.040001,949.320007,641365
-117.200005,82.040001,949.320007,641369
-117.200005,93.760002,937.600037,641373
-117.200005,82.040001,949.320007,641377
-128.919998,93.760002,949.320007,641381
-128.919998,105.480003,949.320007,641385
-140.639999,105.480003,961.040039,641389
-117.200005,70.32,949.320007,641393
-117.200005,70.32,949.320007,641397
-128.919998,82.040001,961.040039,641401
-105.480003,82.040001,961.040039,641405
-117.200005,93.760002,961.040039,641409
-105.480003,82.040001,949.320007,641413
-105.480003,82.040001,937.600037,641417
-93.760002,58.600002,961.040039,641421
-117.200005,70.32,961.040039,641425
-117.200005,70.32,961.040039,641429
-117.200005,82.040001,961.040039,641433
-117.200005,70.32,949.320007,641437
-117.200005,58.600002,961.040039,641441
-117.200005,35.16,949.320007,641445
-140.639999,58.600002,961.040039,641449
-128.919998,93.760002,949.320007,641453
-117.200005,70.32,949.320007,641457
-128.919998,70.32,949.320007,641461
-128.919998,58.600002,961.040039,641465
-93.760002,82.040001,949.320007,641469
-93.760002,82.040001,949.320007,641473
-105.480003,58.600002,961.040039,641477
-93.760002,58.600002,972.76001,641481
-93.760002,46.880001,961.040039,641485
-105.480003,46.880001,949.320007,641489
-117.200005,35.16,949.320007,641493
-117.200005,70.32,949.320007,641497
-117.200005,70.32,972.76001,641501
-117.200005,70.32,972.76001,641505
-128.919998,70.32,972.76001,641509
-117.200005,58.600002,961.040039,641513
-117.200005,70.32,961.040039,641517
-105.480003,46.880001,937.600037,641521
-105.480003,58.600002,937.600037,641525
-128.919998,82.040001,937.600037,641529
-117.200005,70.32,937.600037,641533
-117.200005,82.040001,937.600037,641537
-128.919998,82.040001,937.600037,641541
-117.200005,70.32,937.600037,641545
-140.639999,58.600002,949.320007,641549
-140.639999,82.040001,961.040039,641553
-152.360001,70.32,961.040039,641557
-128.919998,82.040001,949.320007,641561
-128.919998,58.600002,949.320007,641565
-117.200005,93.760002,949.320007,641569
-105.480003,70.32,972.76001,641573
-105.480003,46.880001,972.76001,641577
-128.919998,70.32,961.040039,641581
-128.919998,93.760002,961.040039,641585
-117.200005,70.32,949.320007,641589
-128.919998,70.32,949.320007,641593
-93.760002,70.32,949.320007,641597
-105.480003,70.32,972.76001,641601
-105.480003,70.32,996.200012,641605
-93.760002,58.600002,961.040039,641609
-117.200005,70.32,961.040039,641613
-105.480003,70.32,949.320007,641617
-128.919998,82.040001,949.320007,641621
-128.919998,93.760002,961.040039,641625
-140.639999,93.760002,961.040039,641629
-117.200005,82.040001,949.320007,641633
-105.480003,70.32,961.040039,641637
-93.760002,58.600002,949.320007,641641
-105.480003,82.040001,949.320007,641645
-117.200005,82.040001,949.320007,641649
-105.480003,82.040001,961.040039,641653
-105.480003,93.760002,972.76001,641657
-117.200005,82.040001,961.040039,641661
-117.200005,70.32,949.320007,641665
-117.200005,93.760002,961.040039,641669
-117.200005,93.760002,961.040039,641673
-117.200005,93.760002,949.320007,641677
-105.480003,70.32,961.040039,641681
-93.760002,70.32,961.040039,641685
-117.200005,105.480003,961.040039,641689
-117.200005,70.32,949.320007,641693
-93.760002,58.600002,949.320007,641697
-105.480003,70.32,949.320007,641701
-93.760002,58.600002,949.320007,641705
-117.200005,70.32,961.040039,641709
-105.480003,35.16,984.480042,641713
-105.480003,70.32,949.320007,641717
-105.480003,82.040001,949.320007,641721
-105.480003,105.480003,949.320007,641725
-93.760002,46.880001,949.320007,641729
-105.480003,58.600002,972.76001,641733
-128.919998,93.760002,949.320007,641737
-117.200005,70.32,961.040039,641741
-128.919998,46.880001,937.600037,641745
-105.480003,46.880001,937.600037,641749
-105.480003,58.600002,961.040039,641753
-128.919998,35.16,949.320007,641757
-128.919998,46.880001,949.320007,641761
-117.200005,58.600002,949.320007,641765
-128.919998,82.040001,961.040039,641769
-117.200005,58.600002,961.040039,641773
-117.200005,58.600002,949.320007,641777
-117.200005,93.760002,949.320007,641781
-117.200005,82.040001,949.320007,641785
-93.760002,46.880001,937.600037,641789
-105.480003,82.040001,925.880005,641793
-93.760002,82.040001,937.600037,641797
-105.480003,70.32,949.320007,641801
-93.760002,82.040001,949.320007,641805
-105.480003,105.480003,961.040039,641809
-105.480003,105.480003,961.040039,641813
-105.480003,70.32,937.600037,641817
-105.480003,46.880001,937.600037,641821
-93.760002,82.040001,937.600037,641825
-105.480003,82.040001,949.320007,641829
-117.200005,70.32,949.320007,641833
-117.200005,70.32,961.040039,641837
-105.480003,70.32,949.320007,641841
-105.480003,70.32,961.040039,641845
-117.200005,70.32,961.040039,641849
-128.919998,58.600002,949.320007,641853
-128.919998,105.480003,949.320007,641857
-140.639999,93.760002,949.320007,641861
-140.639999,58.600002,937.600037,641865
-140.639999,82.040001,937.600037,641869
-152.360001,70.32,937.600037,641873
-140.639999,70.32,972.76001,641877
-128.919998,58.600002,961.040039,641881
-93.760002,58.600002,961.040039,641885
-105.480003,46.880001,949.320007,641889
-128.919998,58.600002,949.320007,641893
-128.919998,58.600002,972.76001,641897
-117.200005,58.600002,961.040039,641901
-105.480003,82.040001,949.320007,641905
-128.919998,58.600002,972.76001,641909
-117.200005,70.32,949.320007,641913
-117.200005,82.040001,949.320007,641917
-105.480003,105.480003,961.040039,641921
-93.760002,93.760002,949.320007,641925
-117.200005,82.040001,949.320007,641929
-117.200005,82.040001,961.040039,641933
-128.919998,70.32,949.320007,641937
-128.919998,82.040001,949.320007,641941
-140.639999,93.760002,949.320007,641945
-128.919998,82.040001,949.320007,641949
-117.200005,70.32,949.320007,641953
-117.200005,58.600002,937.600037,641957
-105.480003,58.600002,925.880005,641961
-105.480003,70.32,937.600037,641965
-105.480003,82.040001,937.600037,641969
-105.480003,93.760002,937.600037,641973
-128.919998,58.600002,937.600037,641977
-105.480003,58.600002,949.320007,641981
-93.760002,58.600002,961.040039,641985
-105.480003,70.32,937.600037,641989
-105.480003,70.32,949.320007,641993
-128.919998,46.880001,961.040039,641997
-105.480003,35.16,949.320007,642001
-117.200005,70.32,949.320007,642005
-128.919998,82.040001,949.320007,642009
-105.480003,58.600002,961.040039,642013
-105.480003,82.040001,972.76001,642017
-117.200005,93.760002,949.320007,642021
-128.919998,82.040001,961.040039,642025
-105.480003,58.600002,949.320007,642029
-128.919998,70.32,949.320007,642033
-105.480003,93.760002,949.320007,642037
-117.200005,82.040001,949.320007,642041
-117.200005,105.480003,961.040039,642045
-128.919998,70.32,961.040039,642049
-140.639999,93.760002,972.76001,642053
-128.919998,70.32,972.76001,642057
-117.200005,70.32,972.76001,642061
-140.639999,82.040001,972.76001,642065
-117.200005,70.32,949.320007,642069
-128.919998,82.040001,949.320007,642073
-105.480003,70.32,972.76001,642077
-93.760002,82.040001,961.040039,642081
-105.480003,82.040001,961.040039,642085
-105.480003,46.880001,972.76001,642089
-117.200005,70.32,961.040039,642093
-117.200005,82.040001,949.320007,642097
-117.200005,82.040001,961.040039,642101
-93.760002,82.040001,949.320007,642105
-105.480003,70.32,961.040039,642109
-117.200005,70.32,961.040039,642113
-117.200005,46.880001,949.320007,642117
-140.639999,35.16,949.320007,642121
-128.919998,46.880001,949.320007,642125
-105.480003,70.32,949.320007,642129
-128.919998,70.32,972.76001,642133
-117.200005,105.480003,961.040039,642137
-128.919998,70.32,961.040039,642141
-128.919998,70.32,949.320007,642145
-117.200005,70.32,961.040039,642149
-128.919998,58.600002,972.76001,642153
-117.200005,58.600002,961.040039,642157
-128.919998,70.32,937.600037,642161
-105.480003,70.32,972.76001,642165
-93.760002,70.32,972.76001,642169
-128.919998,82.040001,961.040039,642173
-128.919998,93.760002,949.320007,642177
-105.480003,58.600002,961.040039,642181
-93.760002,93.760002,949.320007,642185
-140.639999,46.880001,961.040039,642189
-128.919998,82.040001,949.320007,642193
-128.919998,58.600002,961.040039,642197
-105.480003,46.880001,961.040039,642201
-117.200005,58.600002,961.040039,642205
-117.200005,117.200005,949.320007,642209
-105.480003,117.200005,949.320007,642213
-117.200005,82.040001,949.320007,642217
-128.919998,82.040001,961.040039,642221
-117.200005,58.600002,949.320007,642225
-128.919998,70.32,972.76001,642229
-128.919998,70.32,961.040039,642233
-128.919998,70.32,949.320007,642237
-128.919998,58.600002,949.320007,642241
-128.919998,82.040001,949.320007,642245
-140.639999,82.040001,949.320007,642249
-128.919998,82.040001,937.600037,642253
-105.480003,58.600002,937.600037,642257
-93.760002,46.880001,949.320007,642261
-93.760002,82.040001,972.76001,642265
-117.200005,82.040001,961.040039,642269
-140.639999,93.760002,949.320007,642273
-128.919998,93.760002,937.600037,642277
-117.200005,82.040001,961.040039,642281
-117.200005,93.760002,961.040039,642285
-105.480003,70.32,949.320007,642289
-117.200005,46.880001,949.320007,642293
-117.200005,70.32,961.040039,642297
-117.200005,70.32,949.320007,642301
-105.480003,82.040001,949.320007,642305
-117.200005,105.480003,937.600037,642309
-117.200005,93.760002,961.040039,642313
-140.639999,82.040001,937.600037,642317
-140.639999,82.040001,949.320007,642321
-117.200005,82.040001,961.040039,642325
-105.480003,82.040001,949.320007,642329
-93.760002,70.32,949.320007,642333
-105.480003,70.32,949.320007,642337
-128.919998,58.600002,949.320007,642341
-117.200005,93.760002,949.320007,642345
-117.200005,82.040001,949.320007,642349
-105.480003,82.040001,961.040039,642353
-93.760002,82.040001,949.320007,642357
-128.919998,117.200005,949.320007,642361
-128.919998,70.32,961.040039,642365
-117.200005,46.880001,961.040039,642369
-140.639999,70.32,961.040039,642373
-128.919998,70.32,961.040039,642377
-117.200005,82.040001,949.320007,642381
-128.919998,82.040001,937.600037,642385
-117.200005,82.040001,925.880005,642389
-128.919998,82.040001,961.040039,642393
-105.480003,93.760002,949.320007,642397
-117.200005,93.760002,949.320007,642401
-117.200005,46.880001,961.040039,642405
-128.919998,58.600002,949.320007,642409
-128.919998,58.600002,937.600037,642413
-105.480003,70.32,937.600037,642417
-105.480003,70.32,972.76001,642421
-105.480003,58.600002,949.320007,642425
-93.760002,70.32,961.040039,642429
-128.919998,58.600002,961.040039,642433
-105.480003,93.760002,972.76001,642437
-117.200005,82.040001,949.320007,642441
-128.919998,82.040001,949.320007,642445
-93.760002,93.760002,937.600037,642449
-105.480003,46.880001,937.600037,642453
-105.480003,70.32,937.600037,642457
-117.200005,105.480003,961.040039,642461
-128.919998,58.600002,949.320007,642465
-105.480003,82.040001,949.320007,642469
-93.760002,70.32,949.320007,642473
-117.200005,46.880001,949.320007,642477
-140.639999,58.600002,949.320007,642481
-128.919998,70.32,949.320007,642485
-105.480003,93.760002,972.76001,642489
-93.760002,82.040001,961.040039,642493
-117.200005,93.760002,949.320007,642497
-128.919998,70.32,949.320007,642501
-117.200005,46.880001,972.76001,642505
-117.200005,70.32,972.76001,642509
-128.919998,82.040001,949.320007,642513
-117.200005,82.040001,937.600037,642517
-128.919998,82.040001,937.600037,642521
-105.480003,46.880001,972.76001,642525
-105.480003,70.32,961.040039,642529
-128.919998,93.760002,961.040039,642533
-117.200005,82.040001,949.320007,642537
-105.480003,70.32,949.320007,642541
-117.200005,93.760002,961.040039,642545
-128.919998,46.880001,949.320007,642549
-93.760002,58.600002,972.76001,642553
-105.480003,82.040001,961.040039,642557
-128.919998,70.32,949.320007,642561
-117.200005,70.32,949.320007,642565
-105.480003,93.760002,961.040039,642569
-105.480003,82.040001,937.600037,642573
-117.200005,93.760002,925.880005,642577
-105.480003,93.760002,961.040039,642581
-93.760002,105.480003,961.040039,642585
-105.480003,82.040001,949.320007,642589
-117.200005,70.32,949.320007,642593
-128.919998,46.880001,972.76001,642597
-117.200005,58.600002,949.320007,642601
-117.200005,70.32,961.040039,642605
-128.919998,82.040001,972.76001,642609
-117.200005,82.040001,961.040039,642613
-128.919998,82.040001,972.76001,642617
-105.480003,70.32,961.040039,642621
-93.760002,82.040001,972.76001,642625
-105.480003,58.600002,937.600037,642629
-93.760002,58.600002,949.320007,642633
-117.200005,70.32,949.320007,642637
-117.200005,70.32,961.040039,642641
-117.200005,70.32,961.040039,642645
-128.919998,58.600002,949.320007,642649
-117.200005,46.880001,937.600037,642653
-128.919998,93.760002,949.320007,642657
-117.200005,70.32,961.040039,642661
-128.919998,82.040001,937.600037,642665
-105.480003,58.600002,937.600037,642669
-117.200005,105.480003,961.040039,642673
-105.480003,70.32,949.320007,642677
-117.200005,58.600002,972.76001,642681
-128.919998,82.040001,961.040039,642685
-105.480003,93.760002,949.320007,642689
-117.200005,70.32,961.040039,642693
-105.480003,82.040001,949.320007,642697
-105.480003,82.040001,972.76001,642701
-117.200005,93.760002,961.040039,642705
-128.919998,46.880001,949.320007,642709
-117.200005,58.600002,949.320007,642713
-105.480003,82.040001,972.76001,642717
-128.919998,93.760002,972.76001,642721
-105.480003,70.32,972.76001,642725
-117.200005,105.480003,961.040039,642729
-105.480003,82.040001,972.76001,642733
-105.480003,70.32,961.040039,642737
-105.480003,46.880001,972.76001,642741
-105.480003,46.880001,949.320007,642745
-128.919998,58.600002,961.040039,642749
-117.200005,82.040001,949.320007,642753
-128.919998,93.760002,949.320007,642757
-128.919998,82.040001,937.600037,642761
-105.480003,82.040001,972.76001,642765
-128.919998,93.760002,972.76001,642769
-117.200005,93.760002,961.040039,642773
-128.919998,58.600002,949.320007,642777
-105.480003,82.040001,961.040039,642781
-117.200005,93.760002,961.040039,642785
-105.480003,70.32,949.320007,642789
-117.200005,70.32,949.320007,642793
-128.919998,70.32,961.040039,642797
-105.480003,58.600002,972.76001,642801
-105.480003,70.32,972.76001,642805
-128.919998,70.32,972.76001,642809
-105.480003,82.040001,949.320007,642813
-117.200005,82.040001,961.040039,642817
-105.480003,35.16,949.320007,642821
-117.200005,58.600002,949.320007,642825
-117.200005,58.600002,961.040039,642829
-117.200005,70.32,949.320007,642833
-117.200005,70.32,961.040039,642837
-117.200005,105.480003,949.320007,642841
-117.200005,105.480003,972.76001,642845
-128.919998,140.639999,949.320007,642849
-105.480003,105.480003,949.320007,642853
-93.760002,70.32,949.320007,642857
-105.480003,70.32,961.040039,642861
-93.760002,35.16,937.600037,642865
-105.480003,70.32,949.320007,642869
-93.760002,58.600002,949.320007,642873
-128.919998,82.040001,949.320007,642877
-128.919998,82.040001,961.040039,642881
-117.200005,93.760002,961.040039,642885
-117.200005,70.32,949.320007,642889
-140.639999,105.480003,972.76001,642893
-117.200005,70.32,961.040039,642897
-105.480003,58.600002,961.040039,642901
-105.480003,58.600002,949.320007,642905
-93.760002,70.32,949.320007,642909
-128.919998,70.32,949.320007,642913
-117.200005,58.600002,961.040039,642917
-105.480003,82.040001,961.040039,642921
-105.480003,58.600002,961.040039,642925
-93.760002,93.760002,961.040039,642929
-117.200005,93.760002,937.600037,642933
-117.200005,70.32,937.600037,642937
-105.480003,70.32,914.160034,642941
-117.200005,58.600002,925.880005,642945
-128.919998,82.040001,949.320007,642949
-93.760002,82.040001,949.320007,642953
-128.919998,82.040001,949.320007,642957
-105.480003,82.040001,949.320007,642961
-117.200005,58.600002,961.040039,642965
-128.919998,58.600002,961.040039,642969
-128.919998,70.32,949.320007,642973
-117.200005,82.040001,949.320007,642977
-128.919998,82.040001,972.76001,642981
-128.919998,58.600002,972.76001,642985
-128.919998,82.040001,961.040039,642989
-105.480003,93.760002,949.320007,642993
-105.480003,58.600002,961.040039,642997
-105.480003,70.32,972.76001,643001
-117.200005,58.600002,949.320007,643005
-93.760002,58.600002,949.320007,643009
-117.200005,58.600002,961.040039,643013
-128.919998,93.760002,972.76001,643017
-117.200005,93.760002,984.480042,643021
-105.480003,70.32,949.320007,643025
-117.200005,93.760002,961.040039,643029
-117.200005,93.760002,961.040039,643033
-117.200005,70.32,937.600037,643037
-117.200005,46.880001,949.320007,643041
-105.480003,93.760002,949.320007,643045
-105.480003,70.32,961.040039,643049
-105.480003,82.040001,961.040039,643053
-105.480003,70.32,972.76001,643057
-128.919998,82.040001,961.040039,643061
-117.200005,93.760002,961.040039,643065
-140.639999,58.600002,961.040039,643069
-140.639999,93.760002,949.320007,643073
-117.200005,70.32,949.320007,643077
-117.200005,70.32,961.040039,643081
-128.919998,70.32,961.040039,643085
-105.480003,58.600002,961.040039,643089
-117.200005,70.32,961.040039,643093
-128.919998,93.760002,949.320007,643097
-117.200005,93.760002,949.320007,643101
-105.480003,70.32,961.040039,643105
-105.480003,70.32,937.600037,643109
-117.200005,82.040001,937.600037,643113
-128.919998,70.32,949.320007,643117
-128.919998,82.040001,949.320007,643121
-93.760002,93.760002,949.320007,643125
-117.200005,70.32,972.76001,643129
-128.919998,105.480003,961.040039,643133
-105.480003,93.760002,972.76001,643137
-105.480003,82.040001,972.76001,643141
-117.200005,70.32,961.040039,643145
-105.480003,82.040001,961.040039,643149
-105.480003,82.040001,961.040039,643153
-105.480003,58.600002,961.040039,643157
-105.480003,46.880001,961.040039,643161
-93.760002,58.600002,949.320007,643165
-117.200005,58.600002,961.040039,643169
-128.919998,70.32,972.76001,643173
-117.200005,58.600002,961.040039,643177
-140.639999,70.32,949.320007,643181
-128.919998,70.32,949.320007,643185
-105.480003,58.600002,949.320007,643189
-117.200005,70.32,961.040039,643193
-128.919998,82.040001,961.040039,643197
-117.200005,105.480003,937.600037,643201
-117.200005,105.480003,937.600037,643205
-128.919998,105.480003,961.040039,643209
-128.919998,58.600002,949.320007,643213
-105.480003,70.32,937.600037,643217
-117.200005,46.880001,937.600037,643221
-117.200005,70.32,937.600037,643225
-128.919998,82.040001,949.320007,643229
-128.919998,93.760002,949.320007,643233
-117.200005,93.760002,949.320007,643237
-128.919998,46.880001,949.320007,643241
-105.480003,58.600002,961.040039,643245
-93.760002,70.32,937.600037,643249
-93.760002,46.880001,961.040039,643253
-117.200005,58.600002,949.320007,643257
-105.480003,82.040001,949.320007,643261
-117.200005,58.600002,949.320007,643265
-93.760002,70.32,961.040039,643269
-117.200005,70.32,949.320007,643273
-105.480003,58.600002,961.040039,643277
-93.760002,82.040001,972.76001,643281
-117.200005,58.600002,949.320007,643285
-117.200005,46.880001,949.320007,643289
-93.760002,58.600002,961.040039,643293
-117.200005,46.880001,961.040039,643297
-128.919998,46.880001,949.320007,643301
-105.480003,58.600002,961.040039,643305
-105.480003,93.760002,949.320007,643309
-105.480003,82.040001,961.040039,643313
-93.760002,105.480003,961.040039,643317
-117.200005,70.32,949.320007,643321
-117.200005,70.32,925.880005,643325
-105.480003,93.760002,937.600037,643329
-128.919998,93.760002,937.600037,643333
-117.200005,58.600002,937.600037,643337
-128.919998,82.040001,949.320007,643341
-117.200005,82.040001,949.320007,643345
-105.480003,82.040001,937.600037,643349
-117.200005,70.32,750.080017,643353
-117.200005,82.040001,937.600037,643357
-117.200005,93.760002,949.320007,643361
-105.480003,82.040001,949.320007,643365
-117.200005,46.880001,961.040039,643369
-105.480003,46.880001,949.320007,643373
-117.200005,105.480003,949.320007,643377
-128.919998,93.760002,949.320007,643381
-128.919998,70.32,949.320007,643385
-117.200005,70.32,961.040039,643389
-117.200005,70.32,949.320007,643393
-117.200005,46.880001,949.320007,643397
-128.919998,70.32,949.320007,643401
-117.200005,70.32,949.320007,643405
-117.200005,58.600002,961.040039,643409
-117.200005,93.760002,949.320007,643413
-105.480003,70.32,972.76001,643417
-117.200005,58.600002,1007.920044,643421
-117.200005,58.600002,996.200012,643425
-117.200005,82.040001,984.480042,643429
-105.480003,70.32,949.320007,643433
-128.919998,58.600002,961.040039,643437
-152.360001,93.760002,937.600037,643441
-117.200005,70.32,937.600037,643445
-117.200005,82.040001,937.600037,643449
-117.200005,82.040001,961.040039,643453
-140.639999,58.600002,949.320007,643457
-128.919998,82.040001,949.320007,643461
-117.200005,70.32,961.040039,643465
-117.200005,70.32,937.600037,643469
-152.360001,82.040001,937.600037,643473
-128.919998,82.040001,937.600037,643477
-105.480003,70.32,972.76001,643481
-105.480003,70.32,972.76001,643485
-128.919998,46.880001,949.320007,643489
-117.200005,58.600002,961.040039,643493
-117.200005,46.880001,949.320007,643497
-117.200005,46.880001,949.320007,643501
-117.200005,70.32,961.040039,643505
-117.200005,58.600002,961.040039,643509
-117.200005,82.040001,961.040039,643513
-117.200005,93.760002,961.040039,643517
-128.919998,82.040001,961.040039,643521
-105.480003,93.760002,961.040039,643525
-105.480003,82.040001,961.040039,643529
-105.480003,93.760002,949.320007,643533
-117.200005,93.760002,949.320007,643537
-128.919998,70.32,937.600037,643541
-105.480003,70.32,961.040039,643545
-117.200005,70.32,949.320007,643549
-93.760002,58.600002,972.76001,643553
-117.200005,58.600002,972.76001,643557
-128.919998,58.600002,961.040039,643561
-117.200005,82.040001,949.320007,643565
-117.200005,82.040001,961.040039,643569
-105.480003,70.32,984.480042,643573
-105.480003,58.600002,984.480042,643577
-117.200005,93.760002,972.76001,643581
-117.200005,58.600002,961.040039,643585
-140.639999,35.16,949.320007,643589
-152.360001,46.880001,961.040039,643593
-140.639999,46.880001,949.320007,643597
-117.200005,46.880001,949.320007,643601
-128.919998,46.880001,972.76001,643605
-117.200005,93.760002,972.76001,643609
-117.200005,82.040001,961.040039,643613
-105.480003,82.040001,972.76001,643617
-105.480003,58.600002,937.600037,643621
-105.480003,70.32,925.880005,643625
-128.919998,58.600002,961.040039,643629
-117.200005,58.600002,949.320007,643633
-128.919998,70.32,961.040039,643637
-128.919998,82.040001,949.320007,643641
-117.200005,82.040001,961.040039,643645
-117.200005,82.040001,972.76001,643649
-105.480003,82.040001,937.600037,643653
-105.480003,70.32,925.880005,643657
-128.919998,82.040001,937.600037,643661
-117.200005,70.32,961.040039,643665
-128.919998,70.32,949.320007,643669
-105.480003,82.040001,972.76001,643673
-117.200005,82.040001,972.76001,643677
-128.919998,82.040001,972.76001,643681
-105.480003,70.32,949.320007,643685
-93.760002,70.32,961.040039,643689
-105.480003,82.040001,949.320007,643693
-93.760002,82.040001,949.320007,643697
-117.200005,105.480003,949.320007,643701
-117.200005,82.040001,949.320007,643705
-105.480003,58.600002,949.320007,643709
-93.760002,82.040001,972.76001,643713
-105.480003,93.760002,972.76001,643717
-117.200005,93.760002,961.040039,643721
-117.200005,82.040001,961.040039,643725
-128.919998,93.760002,961.040039,643729
-117.200005,82.040001,949.320007,643733
-117.200005,58.600002,961.040039,643737
-140.639999,82.040001,961.040039,643741
-128.919998,82.040001,961.040039,643745
-117.200005,70.32,961.040039,643749
-117.200005,70.32,949.320007,643753
-117.200005,46.880001,949.320007,643757
-117.200005,58.600002,984.480042,643761
-128.919998,82.040001,961.040039,643765
-128.919998,58.600002,937.600037,643769
-128.919998,70.32,937.600037,643773
-117.200005,82.040001,949.320007,643777
-128.919998,70.32,949.320007,643781
-117.200005,58.600002,972.76001,643785
-128.919998,82.040001,961.040039,643789
-117.200005,105.480003,949.320007,643793
-117.200005,58.600002,972.76001,643797
-128.919998,70.32,972.76001,643801
-105.480003,58.600002,949.320007,643805
-117.200005,58.600002,949.320007,643809
-117.200005,70.32,972.76001,643813
-128.919998,70.32,949.320007,643817
-105.480003,82.040001,961.040039,643821
-128.919998,70.32,949.320007,643825
-117.200005,58.600002,961.040039,643829
-93.760002,82.040001,961.040039,643833
-117.200005,93.760002,949.320007,643837
-117.200005,58.600002,949.320007,643841
-128.919998,82.040001,949.320007,643845
-105.480003,58.600002,949.320007,643849
-93.760002,82.040001,961.040039,643853
-117.200005,58.600002,961.040039,643857
-105.480003,70.32,949.320007,643861
-105.480003,46.880001,949.320007,643865
-117.200005,82.040001,949.320007,643869
-128.919998,82.040001,937.600037,643873
-128.919998,93.760002,961.040039,643877
-128.919998,70.32,949.320007,643881
-128.919998,46.880001,961.040039,643885
-117.200005,70.32,961.040039,643889
-117.200005,46.880001,949.320007,643893
-105.480003,58.600002,949.320007,643897
-105.480003,70.32,972.76001,643901
-105.480003,70.32,949.320007,643905
-105.480003,70.32,961.040039,643909
-93.760002,82.040001,937.600037,643913
-105.480003,93.760002,949.320007,643917
-82.040001,105.480003,972.76001,643921
-117.200005,82.040001,949.320007,643925
-117.200005,93.760002,949.320007,643929
-105.480003,93.760002,937.600037,643933
-117.200005,93.760002,937.600037,643937
-117.200005,70.32,937.600037,643941
-105.480003,70.32,937.600037,643945
-105.480003,82.040001,937.600037,643949
-117.200005,70.32,937.600037,643953
-117.200005,58.600002,949.320007,643957
-105.480003,70.32,949.320007,643961
-117.200005,58.600002,961.040039,643965
-117.200005,82.040001,949.320007,643969
-105.480003,105.480003,949.320007,643973
-105.480003,93.760002,949.320007,643977
-105.480003,70.32,961.040039,643981
-105.480003,82.040001,949.320007,643985
-93.760002,93.760002,949.320007,643989
-117.200005,93.760002,961.040039,643993
-105.480003,82.040001,949.320007,643997
-140.639999,58.600002,961.040039,644001
-117.200005,70.32,949.320007,644005
-105.480003,58.600002,949.320007,644009
-140.639999,93.760002,949.320007,644013
-128.919998,93.760002,937.600037,644017
-105.480003,105.480003,937.600037,644021
-152.360001,82.040001,949.320007,644025
-117.200005,82.040001,949.320007,644029
-140.639999,82.040001,961.040039,644033
-117.200005,58.600002,961.040039,644037
-105.480003,70.32,949.320007,644041
-128.919998,82.040001,961.040039,644045
-128.919998,82.040001,949.320007,644049
-117.200005,58.600002,961.040039,644053
-140.639999,46.880001,949.320007,644057
-140.639999,46.880001,937.600037,644061
-128.919998,82.040001,961.040039,644065
-105.480003,82.040001,972.76001,644069
-105.480003,82.040001,937.600037,644073
-117.200005,58.600002,961.040039,644077
-117.200005,82.040001,937.600037,644081
-117.200005,82.040001,937.600037,644085
-140.639999,93.760002,937.600037,644089
-128.919998,58.600002,949.320007,644093
-128.919998,70.32,949.320007,644097
-117.200005,70.32,949.320007,644101
-117.200005,82.040001,949.320007,644105
-117.200005,82.040001,925.880005,644109
-128.919998,82.040001,961.040039,644113
-117.200005,82.040001,949.320007,644117
-128.919998,82.040001,949.320007,644121
-128.919998,93.760002,949.320007,644125
-117.200005,93.760002,961.040039,644129
-117.200005,58.600002,949.320007,644133
-117.200005,46.880001,949.320007,644137
-117.200005,58.600002,937.600037,644141
-128.919998,70.32,937.600037,644145
-117.200005,70.32,961.040039,644149
-117.200005,82.040001,961.040039,644153
-140.639999,70.32,961.040039,644157
-128.919998,70.32,961.040039,644161
-128.919998,46.880001,937.600037,644165
-128.919998,46.880001,949.320007,644169
-105.480003,46.880001,949.320007,644173
-93.760002,58.600002,937.600037,644177
-117.200005,93.760002,937.600037,644181
-140.639999,93.760002,961.040039,644185
-128.919998,70.32,972.76001,644189
-128.919998,105.480003,961.040039,644193
-128.919998,93.760002,949.320007,644197
-117.200005,70.32,961.040039,644201
-128.919998,70.32,972.76001,644205
-117.200005,70.32,961.040039,644209
-117.200005,82.040001,961.040039,644213
-128.919998,82.040001,961.040039,644217
-105.480003,93.760002,949.320007,644221
-117.200005,82.040001,961.040039,644225
-128.919998,82.040001,972.76001,644229
-128.919998,58.600002,949.320007,644233
-105.480003,82.040001,949.320007,644237
-93.760002,35.16,949.320007,644241
-93.760002,58.600002,961.040039,644245
-128.919998,70.32,961.040039,644249
-117.200005,70.32,949.320007,644253
-117.200005,70.32,949.320007,644257
-128.919998,82.040001,937.600037,644261
-128.919998,70.32,937.600037,644265
-128.919998,82.040001,949.320007,644269
-117.200005,93.760002,972.76001,644273
-140.639999,93.760002,972.76001,644277
-128.919998,93.760002,961.040039,644281
-105.480003,82.040001,961.040039,644285
-117.200005,70.32,949.320007,644289
-128.919998,82.040001,949.320007,644293
-117.200005,58.600002,972.76001,644297
-105.480003,58.600002,961.040039,644301
-93.760002,58.600002,949.320007,644305
-105.480003,82.040001,961.040039,644309
-93.760002,93.760002,961.040039,644313
-128.919998,82.040001,972.76001,644317
-117.200005,70.32,961.040039,644321
-117.200005,58.600002,961.040039,644325
-117.200005,58.600002,949.320007,644329
-140.639999,82.040001,961.040039,644333
-140.639999,70.32,961.040039,644337
-128.919998,58.600002,949.320007,644341
-117.200005,93.760002,937.600037,644345
-128.919998,70.32,949.320007,644349
-117.200005,82.040001,949.320007,644353
-128.919998,93.760002,949.320007,644357
-105.480003,58.600002,937.600037,644361
-105.480003,58.600002,949.320007,644365
-117.200005,58.600002,949.320007,644369
-117.200005,58.600002,961.040039,644373
-117.200005,46.880001,949.320007,644377
-117.200005,70.32,949.320007,644381
-117.200005,70.32,949.320007,644385
-140.639999,82.040001,949.320007,644389
-128.919998,105.480003,949.320007,644393
-128.919998,82.040001,961.040039,644397
-140.639999,105.480003,961.040039,644401
-128.919998,82.040001,937.600037,644405
-117.200005,82.040001,925.880005,644409
-117.200005,93.760002,949.320007,644413
-152.360001,93.760002,949.320007,644417
-128.919998,70.32,949.320007,644421
-128.919998,82.040001,949.320007,644425
-117.200005,105.480003,972.76001,644429
-105.480003,93.760002,949.320007,644433
-105.480003,70.32,949.320007,644437
-93.760002,70.32,961.040039,644441
-117.200005,82.040001,961.040039,644445
-117.200005,70.32,961.040039,644449
-140.639999,70.32,949.320007,644453
-140.639999,93.760002,949.320007,644457
-117.200005,82.040001,949.320007,644461
-117.200005,93.760002,949.320007,644465
-117.200005,93.760002,961.040039,644469
-128.919998,70.32,949.320007,644473
-140.639999,58.600002,972.76001,644477
-128.919998,46.880001,949.320007,644481
-128.919998,46.880001,949.320007,644485
-117.200005,70.32,937.600037,644489
-140.639999,105.480003,937.600037,644493
-117.200005,105.480003,937.600037,644497
-117.200005,105.480003,937.600037,644501
-117.200005,70.32,937.600037,644505
-117.200005,58.600002,972.76001,644509
-128.919998,82.040001,961.040039,644513
-140.639999,93.760002,972.76001,644517
-105.480003,70.32,972.76001,644521
-93.760002,70.32,961.040039,644525
-105.480003,70.32,925.880005,644529
-105.480003,58.600002,937.600037,644533
-128.919998,58.600002,925.880005,644537
-105.480003,58.600002,925.880005,644541
-105.480003,58.600002,937.600037,644545
-105.480003,46.880001,961.040039,644549
-93.760002,46.880001,961.040039,644553
-128.919998,46.880001,949.320007,644557
-128.919998,58.600002,949.320007,644561
-117.200005,82.040001,961.040039,644565
-140.639999,93.760002,961.040039,644569
-128.919998,93.760002,949.320007,644573
-93.760002,70.32,961.040039,644577
-117.200005,58.600002,949.320007,644581
-128.919998,70.32,961.040039,644585
-105.480003,70.32,961.040039,644589
-128.919998,58.600002,949.320007,644593
-128.919998,58.600002,949.320007,644597
-105.480003,70.32,949.320007,644601
-105.480003,82.040001,937.600037,644605
-128.919998,82.040001,949.320007,644609
-117.200005,105.480003,937.600037,644613
-117.200005,105.480003,937.600037,644617
-128.919998,70.32,937.600037,644621
-105.480003,82.040001,925.880005,644625
-105.480003,93.760002,961.040039,644629
-105.480003,93.760002,949.320007,644633
-105.480003,82.040001,949.320007,644637
-105.480003,70.32,949.320007,644641
-105.480003,70.32,949.320007,644645
-117.200005,82.040001,949.320007,644649
-105.480003,93.760002,949.320007,644653
-105.480003,58.600002,961.040039,644657
-93.760002,82.040001,961.040039,644661
-117.200005,93.760002,949.320007,644665
-140.639999,105.480003,972.76001,644669
-128.919998,105.480003,961.040039,644673
-128.919998,105.480003,949.320007,644677
-152.360001,82.040001,961.040039,644681
-117.200005,82.040001,961.040039,644685
-117.200005,58.600002,961.040039,644689
-128.919998,105.480003,984.480042,644693
-105.480003,82.040001,961.040039,644697
-93.760002,58.600002,949.320007,644701
-117.200005,70.32,949.320007,644705
-117.200005,93.760002,949.320007,644709
-117.200005,70.32,949.320007,644713
-128.919998,82.040001,949.320007,644717
-105.480003,46.880001,949.320007,644721
-117.200005,70.32,961.040039,644725
-117.200005,70.32,961.040039,644729
-117.200005,58.600002,937.600037,644733
-117.200005,70.32,949.320007,644737
-128.919998,93.760002,949.320007,644741
-117.200005,82.040001,949.320007,644745
-117.200005,70.32,949.320007,644749
-128.919998,82.040001,961.040039,644753
-105.480003,70.32,961.040039,644757
-105.480003,82.040001,949.320007,644761
-117.200005,93.760002,961.040039,644765
-105.480003,93.760002,949.320007,644769
-117.200005,70.32,961.040039,644773
-117.200005,82.040001,961.040039,644777
-140.639999,70.32,961.040039,644781
-152.360001,93.760002,937.600037,644785
-105.480003,70.32,961.040039,644789
-105.480003,70.32,949.320007,644793
-128.919998,93.760002,949.320007,644797
-140.639999,93.760002,949.320007,644801
-128.919998,70.32,949.320007,644805
-140.639999,82.040001,937.600037,644809
-140.639999,70.32,937.600037,644813
-117.200005,82.040001,937.600037,644817
-117.200005,58.600002,949.320007,644821
-105.480003,70.32,961.040039,644825
-117.200005,58.600002,937.600037,644829
-105.480003,70.32,937.600037,644833
-93.760002,58.600002,949.320007,644837
-93.760002,93.760002,949.320007,644841
-105.480003,46.880001,949.320007,644845
-117.200005,35.16,961.040039,644849
-105.480003,35.16,949.320007,644853
-117.200005,46.880001,972.76001,644857
-128.919998,46.880001,949.320007,644861
-140.639999,35.16,961.040039,644865
-105.480003,58.600002,961.040039,644869
-105.480003,70.32,949.320007,644873
-105.480003,35.16,961.040039,644877
-117.200005,58.600002,961.040039,644881
-117.200005,70.32,961.040039,644885
-117.200005,46.880001,949.320007,644889
-105.480003,70.32,961.040039,644893
-117.200005,82.040001,949.320007,644897
-105.480003,46.880001,961.040039,644901
-117.200005,70.32,949.320007,644905
-140.639999,82.040001,949.320007,644909
-117.200005,70.32,961.040039,644913
-105.480003,82.040001,949.320007,644917
-93.760002,46.880001,949.320007,644921
-93.760002,70.32,972.76001,644925
-93.760002,70.32,961.040039,644929
-128.919998,70.32,961.040039,644933
-128.919998,58.600002,949.320007,644937
-105.480003,82.040001,949.320007,644941
-117.200005,70.32,961.040039,644945
-128.919998,70.32,961.040039,644949
-93.760002,93.760002,949.320007,644953
-105.480003,82.040001,949.320007,644957
-105.480003,93.760002,961.040039,644961
-117.200005,82.040001,972.76001,644965
-128.919998,105.480003,949.320007,644969
-117.200005,70.32,949.320007,644973
-128.919998,82.040001,949.320007,644977
-117.200005,70.32,949.320007,644981
-128.919998,93.760002,949.320007,644985
-128.919998,70.32,961.040039,644989
-93.760002,23.440001,961.040039,644993
-128.919998,58.600002,949.320007,644997
-140.639999,70.32,937.600037,645001
-140.639999,82.040001,961.040039,645005
-140.639999,58.600002,961.040039,645009
-152.360001,70.32,949.320007,645013
-128.919998,70.32,972.76001,645017
-105.480003,82.040001,972.76001,645021
-117.200005,117.200005,949.320007,645025
-117.200005,82.040001,949.320007,645029
-128.919998,105.480003,961.040039,645033
-105.480003,117.200005,961.040039,645037
-93.760002,70.32,961.040039,645041
-93.760002,58.600002,949.320007,645045
-128.919998,35.16,972.76001,645049
-128.919998,23.440001,961.040039,645053
-117.200005,46.880001,972.76001,645057
-128.919998,70.32,972.76001,645061
-105.480003,93.760002,961.040039,645065
-117.200005,82.040001,961.040039,645069
-105.480003,70.32,961.040039,645073
-105.480003,70.32,949.320007,645077
-93.760002,70.32,961.040039,645081
-140.639999,82.040001,972.76001,645085
-128.919998,58.600002,984.480042,645089
-128.919998,70.32,984.480042,645093
-140.639999,70.32,961.040039,645097
-128.919998,82.040001,972.76001,645101
-128.919998,58.600002,949.320007,645105
-128.919998,82.040001,949.320007,645109
-117.200005,70.32,961.040039,645113
-105.480003,82.040001,949.320007,645117
-105.480003,70.32,949.320007,645121
-117.200005,82.040001,961.040039,645125
-128.919998,82.040001,949.320007,645129
-105.480003,58.600002,949.320007,645133
-117.200005,58.600002,949.320007,645137
-128.919998,46.880001,949.320007,645141
-117.200005,58.600002,949.320007,645145
-105.480003,70.32,961.040039,645149
-117.200005,46.880001,961.040039,645153
-128.919998,58.600002,984.480042,645157
-128.919998,70.32,949.320007,645161
-128.919998,117.200005,949.320007,645165
-128.919998,93.760002,961.040039,645169
-128.919998,82.040001,961.040039,645173
-117.200005,70.32,961.040039,645177
-117.200005,82.040001,961.040039,645181
-128.919998,70.32,961.040039,645185
-117.200005,82.040001,949.320007,645189
-128.919998,70.32,972.76001,645193
-105.480003,70.32,961.040039,645197
-117.200005,58.600002,949.320007,645201
-140.639999,82.040001,949.320007,645205
-152.360001,82.040001,949.320007,645209
-140.639999,58.600002,972.76001,645213
-117.200005,58.600002,972.76001,645217
